counter,date_time,latitude,longitude,temperature,humidity,pressure,pitch,roll,yaw,accel_x,accel_y,accel_z,gyro_x,gyro_y,gyro_z,mag_x,mag_y,mag_z,motion_detected,humans_detected
1,2023-05-12 12:46:08,-20.2800441,66.77867751,36.84051514,26.10334587,1003.663574,334.09431,68.26318502,248.996435,0.01634800062,0.03562399745,0.01219999976,0.008111972362,0.009121350944,-0.004014741629,-4.093542576,-0.09361582249,-7.216313362,0,0
2,2023-05-12 12:46:08,-20.26793855,66.78894207,37.51616287,24.71122551,1003.647461,334.2503405,68.49534315,248.9856228,0.01830000058,0.03660000116,0.0153719997,0.00602985546,0.007091663778,-0.0005778167397,-5.652377605,-0.2404641062,-10.395998,0,0
3,2023-05-12 12:46:08,-20.26217246,66.79383043,36.53825378,26.05439377,1003.652588,334.2744084,68.67108392,249.0858695,0.01854399964,0.03684400022,0.01146799978,0.008622612804,0.006621912122,-0.0007061623037,-6.211312294,-0.3195365667,-11.45822525,0,0
4,2023-05-12 12:46:08,-20.25659606,66.79855747,36.5915947,26.31751823,1003.658203,334.3088616,68.79137721,249.2291873,0.01903199963,0.03830799833,0.01317599975,0.009038031101,0.005562514067,-0.003603313118,-6.320466995,-0.2308207899,-11.74024868,0,0
5,2023-05-12 12:46:08,-20.25064474,66.80360176,36.53825378,26.26550484,1003.665283,334.3723772,68.91536563,249.3676216,0.01805599965,0.03684400022,0.01219999976,0.006708804518,0.006995558739,-0.002215038985,-6.534535885,-0.3314184546,-12.01033974,0,0
6,2023-05-12 12:46:08,-20.24466107,66.80867289,37.17834091,25.98708153,1003.664551,334.378287,69.02719632,249.5130773,0.01805599965,0.03684400022,0.01317599975,0.004196383059,0.003258757293,-0.003020703793,-6.609827042,-0.2434937358,-12.26866531,0,0
7,2023-05-12 12:46:08,-20.2390166,66.81345602,37.08943939,26.17065811,1003.671387,334.4417122,69.05624511,249.616302,0.01927600056,0.03684400022,0.01463999972,0.003542702645,0.005058079958,-0.002556124702,-6.786669254,-0.1360994577,-12.79114723,0,0
8,2023-05-12 12:46:09,-20.23306816,66.81849617,36.80495453,25.95954514,1003.668701,334.4520872,69.10152927,249.7614913,0.0204959996,0.03733199835,0.01146799978,0.005509812385,0.005572572351,-0.002688867971,-6.620810986,-0.2185814828,-13.16303635,0,0
9,2023-05-12 12:46:09,-20.22709658,66.82355536,37.21389771,26.26244545,1003.678467,334.4344551,69.04438107,250.0371441,0.01878799871,0.03733199835,0.01317599975,0.004784412682,0.005197614431,-0.0007903017104,-6.439471722,-0.115224421,-12.5803194,0,0
10,2023-05-12 12:46:09,-20.22120135,66.82854929,36.85829926,26.95697594,1003.679932,334.4754533,68.9736408,250.2372071,0.02000799961,0.03708799928,0.01390799973,0.005677204579,0.003636017442,-0.00281569548,-6.436261177,0.005829439964,-12.34473419,0,0
11,2023-05-12 12:46:09,-20.21388789,66.83474385,37.00053787,26.89884377,1003.692627,334.4804171,69.07732308,250.3354048,0.01878799871,0.03635599837,0.01366399974,0.003217093647,0.002447150648,-0.002415442839,-6.392426014,-0.2287367582,-12.41697407,0,0
12,2023-05-12 12:46:09,-20.2081204,66.83962835,36.5915947,26.3511734,1003.705078,334.4606352,69.12597451,250.4812771,0.01878799871,0.03684400022,0.01585999876,0.005107969046,7.03E-05,-0.0005746688694,-6.532557011,0.50214082,-12.51220894,0,0
13,2023-05-12 12:46:09,-20.20213284,66.84469865,36.75161743,27.03346634,1003.704346,334.4795429,69.13929338,250.5485135,0.01878799871,0.03757599741,0.0104919998,0.002230003476,0.00295919925,-0.0002216435969,-6.567602634,0.2224065363,-13.04605484,0,0
14,2023-05-12 12:46:09,-20.19647831,66.84948641,36.50269318,25.9932003,1003.711182,334.4898223,69.25579592,250.6272861,0.01903199963,0.03684400022,0.01488399971,0.003324974328,0.00341527909,-0.0008077975363,-6.156961441,-0.1016508266,-12.7729826,0,0
15,2023-05-12 12:46:09,-20.19028551,66.85472935,37.21389771,27.29047394,1003.701172,334.4288868,69.37417676,250.8571971,0.01927600056,0.03733199835,0.01293199975,0.003416400403,0.001459002495,-0.002551425248,-6.523584366,0.01851767115,-12.84189987,0,0
16,2023-05-12 12:46:10,-20.18448938,66.85963589,36.82273865,26.40012741,1003.701416,334.4748949,69.51421613,250.9264005,0.01903199963,0.0378200002,0.0156159997,0.003233328462,0.003941908479,-0.003374570981,-6.394915104,-0.09727347642,-13.18207073,0,0
17,2023-05-12 12:46:10,-20.17890656,66.86436135,36.44935226,26.58064461,1003.698975,334.5333682,69.51641545,251.0905163,0.01756799966,0.0361119993,0.01463999972,0.003276344389,0.003182083368,-0.002327159047,-6.493580818,-0.2848438025,-13.10690689,0,0
18,2023-05-12 12:46:10,-20.17296038,66.86939381,36.69827271,26.20431328,1003.695313,334.6206529,69.54889983,251.1813988,0.01951999962,0.03733199835,0.01390799973,0.002791143954,0.00273745507,-0.0001523364335,-5.823357105,-0.1970921457,-12.93950653,0,0
19,2023-05-12 12:46:10,-20.16695824,66.87447306,36.57381439,27.39144135,1003.688965,334.5602569,69.61422376,251.357406,0.01781199872,0.03684400022,0.01341999974,0.002062175423,-0.0001531764865,-0.001038117334,-6.52463007,-0.0360076353,-13.03548908,1,0
20,2023-05-12 12:46:10,-20.16105554,66.87946759,36.39601135,26.00849915,1003.69043,334.649104,69.68903482,251.4094179,0.01878799871,0.03513599932,0.01463999972,0.003659058362,0.002155803144,-0.0009995084256,-6.401228905,0.01166625321,-13.11568642,1,0
21,2023-05-12 12:46:10,-20.15369312,66.88569648,36.76939392,26.23796844,1003.676025,334.6574369,69.61675776,251.5480707,0.01927600056,0.03660000116,0.01488399971,0.001322746277,0.0008037909865,-0.00150969252,-6.606173038,-0.2919320464,-13.10351563,0,0
22,2023-05-12 12:46:10,-20.14831986,66.89024189,36.50269318,26.31139946,1003.674561,334.5082741,69.63287017,251.7030272,0.02147199959,0.03660000116,0.01268799976,0.002097144723,2.74E-05,0.000386018306,-6.650433064,-0.2538754344,-12.79068089,0,0
23,2023-05-12 12:46:10,-20.14290379,66.89482307,37.08943939,26.1981945,1003.681152,334.4665006,69.64247342,251.7075078,0.01683599874,0.03660000116,0.01415199973,0.001708496362,0.001958578825,0.0004155561328,-6.39925909,-0.2360312045,-12.90194702,0,0
24,2023-05-12 12:46:11,-20.13703358,66.89978783,36.46713257,25.79432678,1003.680664,334.5312013,69.59030443,251.7475122,0.01951999962,0.03562399745,0.01195599977,0.0004164166749,0.00334674865,-0.000197481364,-6.65956974,-0.2348503023,-13.06342888,0,0
25,2023-05-12 12:46:11,-20.13196067,66.90407784,36.75161743,25.80044556,1003.689453,334.3020382,69.84653898,251.8242835,0.01683599874,0.03684400022,0.01219999976,-0.0003353767097,0.002635851502,-0.0002236515284,-6.895558357,-0.1236314252,-13.21103382,0,0
26,2023-05-12 12:46:11,-20.12607219,66.90905703,36.57381439,27.18032837,1003.693115,334.3890736,69.78659724,251.7783164,0.01854399964,0.03684400022,0.01293199975,-0.001653462648,0.001572348177,-0.0002031028271,-6.688344002,0.05941668525,-12.33897209,0,0
27,2023-05-12 12:46:11,-20.12028191,66.91395263,36.46713257,27.35472488,1003.686279,334.3720323,69.83153989,251.6647098,0.01854399964,0.03684400022,0.01439599972,0.005429618061,0.001248471439,-0.001371050254,-6.781046391,-0.1116728634,-12.26513577,0,0
28,2023-05-12 12:46:11,-20.11460761,66.91874966,36.80495453,26.45826149,1003.693115,334.4183649,69.75545158,251.5251691,0.0204959996,0.03660000116,0.01341999974,0.001668192446,0.000807441771,-0.0004204008728,-6.751481533,-0.1260131449,-12.87973022,0,0
29,2023-05-12 12:46:11,-20.10882344,66.92363904,37.28501892,28.16858101,1003.688721,334.4292641,69.78222592,251.4651317,0.01781199872,0.03708799928,0.01415199973,-0.000808890909,0.001055158675,0.0004587639123,-6.531327248,-0.2680010796,-12.48663616,0,0
30,2023-05-12 12:46:11,-20.10281704,66.9287157,37.26724243,26.15229988,1003.693115,334.5134309,69.72584271,251.4561705,0.01927600056,0.03830799833,0.01366399974,0.001181703061,0.002157747746,-0.0001765340567,-6.375482559,-0.2398218364,-11.94753647,0,0
31,2023-05-12 12:46:11,-20.09525208,66.93510885,36.71605682,26.1981945,1003.708496,334.5073878,69.78137898,251.4593261,0.01683599874,0.03684400022,0.01366399974,0.0002631545067,0.0005297884345,0.001055661589,-6.436488152,-0.2330234498,-12.72192764,0,0
32,2023-05-12 12:46:12,-20.08944104,66.94001913,36.55603409,26.14006233,1003.706299,334.5873847,69.80257305,251.4834844,0.01781199872,0.03708799928,0.01219999976,0.0005553811789,0.001395963132,-0.001637499779,-6.510824203,-0.3800137043,-12.20913887,0,0
33,2023-05-12 12:46:12,-20.08387026,66.9447259,36.76939392,26.37259102,1003.707275,334.7138098,69.78607815,251.3954501,0.01878799871,0.03733199835,0.01341999974,-0.0007027462125,0.0001231059432,-0.0003980193287,-6.478676319,0.1389292479,-11.98394012,0,0
34,2023-05-12 12:46:12,-20.07808381,66.94961435,37.00053787,24.90398026,1003.704102,334.7222622,69.76811475,251.3084472,0.01805599965,0.03757599741,0.01610399969,0.0007760077715,-0.0001305192709,-8.16E-05,-6.342217922,0.03571170568,-12.40677166,0,0
35,2023-05-12 12:46:12,-20.07256471,66.95427645,37.24945831,26.13700104,1003.704346,334.7668616,69.6964524,251.3170191,0.01830000058,0.0378200002,0.01415199973,0.002201486379,0.00100967288,0.0002340935171,-6.497487545,-0.1760071218,-12.4481678,0,0
36,2023-05-12 12:46:12,-20.06682083,66.95912791,36.80495453,26.917202,1003.703857,334.7170115,69.74469403,251.3303721,0.01830000058,0.03635599837,0.01366399974,-0.0006149783731,0.0009734332561,-3.64E-05,-6.16557169,0.2050812691,-12.01338673,0,0
37,2023-05-12 12:46:12,-20.06087907,66.96414594,37.125,26.17983627,1003.708496,334.7527402,69.80555102,251.28058,0.01756799966,0.03586800024,0.01244399976,0.003855384886,0.0003049820662,0.001507794484,-6.514317036,0.4738949239,-12.55474091,0,0
38,2023-05-12 12:46:12,-20.05516022,66.96897519,36.87607574,26.22879028,1003.713135,334.8098474,69.86817019,251.1838235,0.01756799966,0.03537999839,0.01512799971,0.002229526639,7.45E-09,-0.0003082212061,-6.666924477,-0.07744640857,-12.64433098,0,0
39,2023-05-12 12:46:12,-20.04933507,66.97389367,36.36045074,26.10334587,1003.706787,334.9122695,69.87503453,251.1026672,0.01830000058,0.03537999839,0.01366399974,0.002498406917,-0.000910654664,0.0005877278745,-6.671882629,-0.2314622104,-12.77384567,0,0
40,2023-05-12 12:46:12,-20.04361623,66.97872186,36.84051514,26.26244545,1003.711426,334.9571729,69.86593672,251.0679904,0.0173240006,0.0378200002,0.01439599972,0.001543335617,0.002121508121,0.0002399012446,-6.45506382,0.1142058522,-12.98665237,0,0
41,2023-05-12 12:46:13,-20.03620402,66.9849789,36.5915947,25.28949165,1003.705078,335.0022265,69.91424665,251.0982481,0.01927600056,0.03513599932,0.01366399974,-0.001841686666,0.0005900412798,0.0002330094576,-6.541880131,-0.1079121232,-12.67703342,0,0
42,2023-05-12 12:46:13,-20.03005341,66.99017031,36.609375,26.05439377,1003.703369,334.9507218,70.21934437,251.0942456,0.01976399869,0.03660000116,0.01634800062,-0.001569375396,-0.0008757859468,0.0004881750792,-6.129748344,-0.06671245396,-12.75797462,0,0
43,2023-05-12 12:46:13,-20.02458363,66.99478656,36.84051514,26.76728058,1003.707031,334.8461738,70.09411285,251.3446882,0.01903199963,0.0378200002,0.01415199973,-0.0018706806,0.001509331167,-0.0007550325245,-5.810463905,-0.1037804931,-12.66488361,0,0
44,2023-05-12 12:46:13,-20.01842709,66.99998182,36.44935226,26.00849915,1003.695557,334.844082,70.08468719,251.5992903,0.01781199872,0.03660000116,0.01415199973,0.001190923154,0.0002339184284,0.0001304205507,-6.324491501,-0.04012322426,-12.68740559,0,0
45,2023-05-12 12:46:13,-20.01271482,67.00480165,36.68049622,26.7611618,1003.690918,334.8642567,70.02927386,251.6662261,0.01903199963,0.03513599932,0.01171199977,0.0005412772298,0.001955866814,-0.001320403069,-6.365695477,-0.0824515149,-13.02837944,0,0
46,2023-05-12 12:46:13,-20.00652614,67.01002286,36.84051514,26.13088226,1003.687256,334.8164864,69.96446903,251.7578326,0.01878799871,0.03684400022,0.01195599977,-0.0007101967931,-0.002297885716,-0.0004174020141,-6.293530941,0.03311094269,-12.75076103,0,0
47,2023-05-12 12:46:13,-20.00080474,67.01484931,36.55603409,25.75761032,1003.686523,334.8331981,69.97833431,251.7416792,0.01951999962,0.03684400022,0.01488399971,0.002525586635,-0.001985572278,-0.0006946306676,-6.496207237,-0.3108086884,-12.21909046,0,0
48,2023-05-12 12:46:13,-19.99518177,67.01959222,36.78717804,26.28692245,1003.685059,334.8023666,69.94626657,251.7091266,0.01830000058,0.03562399745,0.01390799973,0.001253802329,0.0004277080297,0.00109314546,-6.544071198,-0.1205878183,-12.12732697,0,0
49,2023-05-12 12:46:14,-19.98895081,67.02484736,36.43157196,25.59851074,1003.680176,334.7763214,69.88758842,251.625969,0.01878799871,0.03733199835,0.01293199975,0.0003261491656,0.0001495853066,0.0008061435074,-6.452606678,-0.1277414709,-12.18635654,0,0
50,2023-05-12 12:46:14,-19.98312405,67.02976105,36.41379166,26.12782288,1003.678711,334.784603,69.79281954,251.5619565,0.02000799961,0.0378200002,0.01219999976,0.002111025155,0.001620844007,0.001728806645,-6.366797447,-0.3444889784,-12.39278507,0,0
51,2023-05-12 12:46:14,-19.97540876,67.03626651,36.80495453,26.03297615,1003.678711,334.7724675,69.79275807,251.5569158,0.01903199963,0.0361119993,0.01390799973,2.96E-05,-0.001389309764,-0.002218425274,-6.168786049,-0.4755046964,-12.66343689,0,0
52,2023-05-12 12:46:14,-19.96982827,67.04097134,37.48060226,25.55261803,1003.678223,334.7542172,69.65681682,251.7012855,0.01927600056,0.0378200002,0.01097999979,-0.0005820095539,0.002225704491,-0.0009710639715,-6.237697601,-0.08294645697,-12.92290783,0,0
53,2023-05-12 12:46:14,-19.96363034,67.04619613,37.00053787,26.28386307,1003.688232,334.7980807,69.72623886,251.7779202,0.0173240006,0.03684400022,0.01244399976,0.0009135529399,-0.001440092921,-9.53E-05,-5.976557732,0.1342265308,-12.52122116,0,0
54,2023-05-12 12:46:14,-19.95776521,67.05113982,37.32057953,26.78257942,1003.6875,334.8081945,69.66495157,251.8907891,0.01830000058,0.03635599837,0.01415199973,-0.0006384924054,-0.0002932846546,0.00143343769,-6.622878551,-0.06406398863,-12.67230225,0,0
55,2023-05-12 12:46:14,-19.95205573,67.05595179,36.48491287,26.22879028,1003.693604,334.7816404,69.61418961,251.8937944,0.01781199872,0.0361119993,0.01317599975,-0.0003624521196,-4.26E-05,-0.0003430470824,-6.789207458,-0.04455319047,-12.16461658,0,0
56,2023-05-12 12:46:14,-19.94642289,67.06069867,36.64493561,26.15229988,1003.692627,334.7647733,69.61015979,251.7463306,0.01903199963,0.03684400022,0.01171199977,0.002299651504,0.001416735351,-0.002107974142,-6.563683987,-0.1015156657,-12.15441322,0,0
57,2023-05-12 12:46:15,-19.94060812,67.06559833,37.35614014,26.27468491,1003.690918,334.72426,69.71933354,251.6018926,0.01951999962,0.03635599837,0.01146799978,0.002839509398,-0.0009795352817,-0.0008234381676,-6.593724728,0.0520709008,-12.04129696,0,0
58,2023-05-12 12:46:15,-19.93502334,67.07030369,36.73383331,26.69997025,1003.688232,334.6271996,69.83263955,251.4960178,0.01781199872,0.03733199835,0.01219999976,0.000321470201,0.001416504383,0.001012733206,-6.603189468,-0.1433427483,-12.1375742,0,0
59,2023-05-12 12:46:15,-19.92880338,67.07554363,37.125,26.28998184,1003.688721,334.6326484,69.91547608,251.3786,0.01830000058,0.03660000116,0.01244399976,0.001535829157,0.001964628696,0.001641741022,-6.420311451,-0.1712528914,-12.37144852,0,0
60,2023-05-12 12:46:21,-19.92256854,67.0807955,36.85829926,26.29916,1003.6875,334.6198367,69.87429687,251.3793923,0.01781199872,0.03733199835,0.01244399976,0.001793909818,0.002185679972,0.001318020746,-6.624507427,-0.0400245674,-12.74796677,0,0
61,2023-05-12 12:46:21,-19.63618556,67.32137034,36.50269318,26.28692245,1003.647949,334.5250388,70.14139142,251.7629143,0.01854399964,0.0361119993,0.01171199977,0.003337468952,5.37E-05,6.97E-05,-6.437307358,-0.09728964418,-12.97415829,0,0
62,2023-05-12 12:46:21,-19.63245642,67.32449457,36.92941666,26.18901443,1003.642822,334.5782015,69.95307627,251.8078774,0.01878799871,0.03660000116,0.01195599977,-0.002403285354,1.05E-05,0.0009409692138,-6.555403233,-0.02520568669,-12.86557007,0,0
63,2023-05-12 12:46:21,-19.6283753,67.32791343,36.92941666,25.60157013,1003.636475,334.5925706,69.98084782,251.7744505,0.0204959996,0.03562399745,0.0156159997,0.0006033964455,0.0008906647563,0.0005593914539,-6.550309658,-0.08587826788,-12.69660282,0,0
64,2023-05-12 12:46:21,-19.62428471,67.33133998,36.98275757,26.93555832,1003.631836,334.5343671,69.83087736,251.8144412,0.01805599965,0.03660000116,0.0156159997,-0.003320448101,0.0008123442531,0.0002421885729,-6.255937576,-0.02123804949,-13.01238346,0,0
65,2023-05-12 12:46:21,-19.6205507,67.33446759,37.01831818,25.0722599,1003.633545,334.6062361,69.74716656,251.8656267,0.01683599874,0.03684400022,0.01293199975,-0.0008529759943,-0.001623958349,-0.000118734315,-6.45087719,-0.01035378966,-12.46310234,0,0
66,2023-05-12 12:46:21,-19.61664074,67.33774236,36.36045074,25.61992836,1003.637207,334.6718554,69.75026063,251.7862462,0.01781199872,0.03635599837,0.0153719997,0.0003839433193,-0.001587070525,-0.001952277496,-6.370667934,-0.04957855493,-12.07029438,0,0
67,2023-05-12 12:46:21,-19.61273979,67.34100935,36.43157196,26.46438026,1003.637207,334.674625,69.65017104,251.7489124,0.0173240006,0.03684400022,0.01512799971,-0.001112438738,0.0003281757236,0.001385282725,-6.126482487,-0.2821723819,-12.24294949,0,0
68,2023-05-12 12:46:21,-19.60883066,67.34428295,36.76939392,26.54087067,1003.636475,334.7296712,69.64017848,251.7705504,0.01781199872,0.03635599837,0.0153719997,-0.001704879105,0.000941246748,0.000768147409,-6.372629642,-0.2786406279,-13.0062151,0,0
69,2023-05-12 12:46:21,-19.60474241,67.3477063,36.68049622,25.64134598,1003.642578,334.8071853,69.47973733,251.8148852,0.01878799871,0.03586800024,0.01219999976,0.001060776412,-0.0002864077687,-0.001329543069,-6.447868347,-0.3402189612,-12.84968281,0,0
70,2023-05-12 12:46:22,-19.6004438,67.35130552,36.609375,25.8922348,1003.6521,334.7625842,69.44615329,251.8922713,0.0173240006,0.03708799928,0.0153719997,0.001085028052,-0.0005829110742,-0.001572463661,-6.311702251,-0.1366184354,-12.8937521,0,0
71,2023-05-12 12:46:22,-19.59568191,67.3552923,36.78717804,25.90141296,1003.654297,334.8024349,69.43846933,251.9529507,0.01854399964,0.03684400022,0.01317599975,-0.00192945078,-0.001785598695,-3.73E-05,-6.2490592,-0.04291740432,-12.75828838,0,0
72,2023-05-12 12:46:22,-19.59194338,67.35842207,36.48491287,26.38788986,1003.653809,334.8176441,69.36665672,252.0073873,0.01903199963,0.0361119993,0.01341999974,0.0002106316388,4.38E-06,-2.92E-05,-6.427361012,-0.2433923185,-12.99820518,0,0
73,2023-05-12 12:46:22,-19.58649038,67.36298672,37.17834091,26.28998184,1003.655029,334.8169269,69.29778109,252.0842064,0.01903199963,0.03708799928,0.01366399974,0.002003256232,0.0003740414977,0.0005934964865,-6.036753654,-0.08621574938,-12.88097858,0,0
74,2023-05-12 12:46:22,-19.58088563,67.36767794,36.52047348,26.01155853,1003.652588,334.8002647,69.27237962,252.216596,0.01781199872,0.03562399745,0.01195599977,-0.0006811134517,0.0004435554147,-0.001557763666,-6.24042654,0.01015364006,-13.14774513,0,0
75,2023-05-12 12:46:22,-19.5748977,67.37268934,36.57381439,26.28998184,1003.655518,334.8014429,69.28405924,252.3172866,0.0173240006,0.03733199835,0.01146799978,0.002031650394,-0.001403130591,0.0002770088613,-6.085014343,-0.2048149705,-13.52257061,0,0
76,2023-05-12 12:46:22,-19.56888035,67.37772481,36.78717804,27.08547974,1003.656738,334.8645111,69.26039264,252.4801593,0.01781199872,0.03708799928,0.01390799973,-0.002241369337,-0.0001152604818,0.0009088218212,-6.279032707,-0.3704009354,-13.38871098,0,0
77,2023-05-12 12:46:22,-19.56309272,67.38256753,36.5915947,26.18901443,1003.658936,334.8379997,69.2847969,252.6187438,0.01830000058,0.03537999839,0.01463999972,-0.001302558929,0.0008321404457,0.001499472186,-6.251787663,-0.4408291876,-13.66328144,0,0
78,2023-05-12 12:46:22,-19.55748067,67.38726283,36.78717804,26.51333427,1003.666016,334.8742151,69.12731323,252.7876886,0.01830000058,0.03562399745,0.01341999974,0.000909730792,-0.00131020695,0.0008406192064,-6.365429878,-0.4009330869,-13.52688694,0,0
79,2023-05-12 12:46:23,-19.55165138,67.39213938,36.44935226,26.17065811,1003.66333,334.8633278,69.08156462,252.8915689,0.02025200054,0.03660000116,0.01390799973,-0.001197401434,-0.0003583282232,0.0008247997612,-6.641739368,-0.4026996791,-12.86441708,0,0
80,2023-05-12 12:46:23,-19.54589222,67.39695674,36.50269318,26.2257309,1003.663574,334.7814782,68.97581281,252.9332877,0.0173240006,0.03806399927,0.01390799973,0.001829322428,0.001977130771,-0.0003905091435,-6.313596725,-0.1987620592,-13.36071491,1,0
81,2023-05-12 12:46:23,-19.53813105,67.40344793,36.68049622,26.20125389,1003.654053,334.8072212,69.06032957,252.9509233,0.01830000058,0.03684400022,0.01293199975,0.001867540181,-0.001371823251,-9.46E-05,-6.320671082,-0.5925410986,-13.32402325,1,0
82,2023-05-12 12:46:23,-19.53243535,67.40821103,36.44935226,26.14312172,1003.646973,334.8947876,69.14838436,252.9593927,0.01951999962,0.03586800024,0.01415199973,0.004581551999,0.001346364617,0.0002314560115,-6.390855789,-0.6129652858,-13.07783699,0,0
83,2023-05-12 12:46:23,-19.52622073,67.41340753,36.68049622,26.14924049,1003.648438,334.821358,69.25383566,253.0446334,0.01903199963,0.03757599741,0.01366399974,-0.0003056265414,0.001067586243,0.0002506822348,-6.535393238,-0.6988378763,-13.29617786,0,0
84,2023-05-12 12:46:23,-19.52043199,67.41824738,36.85829926,25.99014091,1003.65332,334.7827811,69.24265464,253.1046093,0.01805599965,0.03733199835,0.01439599972,-0.0003644935787,-0.001961141825,0.001730784774,-6.505446911,-0.4745464027,-13.15027237,0,0
85,2023-05-12 12:46:23,-19.51459127,67.42313016,37.30280304,26.36035347,1003.653809,334.844859,69.17191437,253.0589973,0.01951999962,0.03830799833,0.0153719997,-0.0009154528379,-0.001341499388,-0.00246851705,-6.608660698,-0.669742167,-12.60227394,0,0
86,2023-05-12 12:46:23,-19.50862906,67.42811398,36.80495453,26.31751823,1003.653809,334.8682746,69.07827247,252.9636137,0.01854399964,0.0361119993,0.01171199977,-0.0009953267872,-0.001923978329,0.001182578504,-6.416002274,-0.2555355132,-12.88196087,0,0
87,2023-05-12 12:46:24,-19.50242473,67.43329961,37.1427803,26.48885727,1003.655518,334.9147728,69.14702516,252.878332,0.01830000058,0.03806399927,0.01366399974,-0.003381509334,-0.0009961277246,0.001144591719,-6.282879829,-0.5695164204,-12.86643791,0,0
88,2023-05-12 12:46:24,-19.49662045,67.43815034,37.32057953,26.22267151,1003.656982,334.9759013,69.09764972,252.8918968,0.01854399964,0.0361119993,0.0153719997,0.002010870725,0.001086555421,0.001109344885,-6.099103451,-0.4546810389,-13.03724957,0,0
89,2023-05-12 12:46:24,-19.4910126,67.44283641,36.57381439,26.3542347,1003.659424,334.9795554,69.02915658,252.9865973,0.01903199963,0.0361119993,0.01268799976,-9.86E-05,-0.0007416382432,0.001086166129,-5.790668011,-0.2465971559,-13.34415817,0,0
90,2023-05-12 12:46:24,-19.48469353,67.44811623,37.23168182,26.25938606,1003.664307,334.9032024,69.09573044,253.2304761,0.0173240006,0.0378200002,0.01390799973,0.0007739849389,0.0007390752435,-0.001332839951,-5.603918076,-0.1342559755,-13.3439455,0,0
91,2023-05-12 12:46:24,-19.47696553,67.45457244,36.71605682,26.26550484,1003.666504,334.8539346,69.12641848,253.5447945,0.01854399964,0.03757599741,0.01390799973,0.001052826643,0.0003809928894,0.0008170884103,-5.789341927,-0.3357590139,-13.39099693,0,0
92,2023-05-12 12:46:24,-19.47132339,67.45928548,36.52047348,26.89272499,1003.675781,334.9087571,69.04807621,253.7290457,0.01854399964,0.03635599837,0.0156159997,0.00219014287,0.000425837934,-0.0009696297348,-5.558275223,-0.3181319833,-13.1944437,0,0
93,2023-05-12 12:46:24,-19.46514543,67.46444554,37.21389771,26.02379608,1003.685547,334.8919838,69.00795568,253.9322985,0.01830000058,0.03635599837,0.01366399974,0.0009945146739,-0.0008185878396,0.001466380432,-5.822434425,-0.5785493255,-13.60638523,0,0
94,2023-05-12 12:46:24,-19.45894801,67.46962128,37.01831818,26.03297615,1003.67627,334.9393375,69.05488591,254.0431183,0.0173240006,0.03806399927,0.01341999974,0.002170816064,-0.000780582428,-0.0006481446326,-6.474174023,-0.4867982566,-13.75257587,0,0
95,2023-05-12 12:46:25,-19.4532742,67.47435921,36.5915947,26.1981945,1003.674561,334.9412859,69.00005315,254.0726725,0.01951999962,0.03635599837,0.01415199973,0.001233015209,-0.001890741289,-0.001247050241,-6.392329693,-0.2025650889,-13.63083172,0,0
96,2023-05-12 12:46:25,-19.44705152,67.47955492,36.85829926,26.0972271,1003.669434,334.953669,69.0186859,254.0538144,0.01927600056,0.03708799928,0.01317599975,0.002333533019,0.001762509346,-0.002155108377,-6.125184536,-0.03244104981,-13.4110117,0,0
97,2023-05-12 12:46:25,-19.44134121,67.4843223,36.52047348,26.66937256,1003.669189,335.0093828,69.00073617,254.048241,0.01756799966,0.03855200112,0.0156159997,0.00264967978,0.0008116066456,0.001766065136,-6.050705433,-0.3056821823,-13.51587582,0,0
98,2023-05-12 12:46:25,-19.43517533,67.48946946,36.66271591,26.07886887,1003.664551,335.0725621,69.02300941,254.0886893,0.01781199872,0.03806399927,0.01073599979,-0.0003630593419,0.001417979598,-0.0003575086594,-6.138232708,-0.3260492384,-13.15597057,0,0
99,2023-05-12 12:46:25,-19.42932208,67.49435511,36.76939392,26.40930748,1003.658447,335.1209557,69.0548176,254.0954717,0.01634800062,0.03660000116,0.0153719997,-0.001555010676,0.001134246588,0.0005521010607,-6.47273159,-0.4747461677,-13.45615482,0,0
100,2023-05-12 12:46:25,-19.42315261,67.49950414,36.57381439,26.20431328,1003.643555,335.2241291,69.08754104,254.0286588,0.01854399964,0.03708799928,0.01512799971,0.001130931079,0.001655951142,0.000639975071,-6.386173725,-0.1910458207,-13.67672443,0,0
101,2023-05-12 12:46:25,-19.41540405,67.50597026,36.53825378,26.26856613,1003.646484,335.163933,69.04209296,254.0537871,0.01927600056,0.03635599837,0.01244399976,-0.0004000328481,-0.00100607425,0.0003425590694,-5.979559422,-0.1665542275,-13.79996872,0,0
102,2023-05-12 12:46:25,-19.40974809,67.51068954,36.82273865,26.06051254,1003.64209,335.078378,68.99785383,254.1850565,0.01878799871,0.03660000116,0.01317599975,0.002104032785,0.001433089375,-0.0002459269017,-6.085256577,-0.5204805732,-14.01335526,0,0
103,2023-05-12 12:46:26,-19.40355694,67.51585482,36.39601135,26.02073669,1003.640137,335.0890536,68.97950794,254.3065997,0.01903199963,0.0361119993,0.01390799973,-0.0003916993737,-0.002204805613,0.001246958971,-6.188785076,-0.5120890141,-13.38350677,0,0
104,2023-05-12 12:46:26,-19.39734451,67.52103728,36.73383331,26.97227478,1003.644531,335.0790405,68.94060318,254.3460714,0.01854399964,0.03708799928,0.01366399974,-7.75E-05,-0.0003133192658,-0.000602087006,-6.404385567,-0.4719945788,-13.23604584,0,0
105,2023-05-12 12:46:26,-19.39169222,67.52575195,37.125,26.28080368,1003.648438,335.0415821,69.01294171,254.3066953,0.01659199968,0.03562399745,0.01585999876,-0.002165090293,-0.0005925744772,0.0005789361894,-6.356639862,-0.2435858697,-13.09182262,0,0
106,2023-05-12 12:46:26,-19.38547997,67.53093313,36.76939392,26.19513512,1003.656982,335.0555942,68.96157869,254.2345958,0.01830000058,0.03733199835,0.01390799973,-0.001141700894,0.0006622001529,-0.001811442897,-6.162977219,-0.282484591,-13.35392666,0,0
107,2023-05-12 12:46:26,-19.37961175,67.53582685,36.73383331,26.2502079,1003.655518,335.0592586,68.98122231,254.2380519,0.01781199872,0.03757599741,0.01439599972,0.0009649135172,-2.71E-05,-0.0005758721381,-5.989825726,-0.2206574082,-13.79018307,0,0
108,2023-05-12 12:46:26,-19.37378111,67.54068871,37.26724243,24.50317383,1003.657471,335.029829,68.97959673,254.3428338,0.01781199872,0.03733199835,0.01512799971,0.0007008723915,-0.0003602355719,2.81E-05,-5.891513348,-0.4184659421,-13.42770195,0,0
109,2023-05-12 12:46:26,-19.36776089,67.54570812,37.23168182,26.00849915,1003.653809,335.0788476,68.93298069,254.4067849,0.01878799871,0.03733199835,0.01439599972,0.0001477003098,0.0002000555396,0.00337359868,-5.927039623,-0.328073442,-13.51843357,0,0
110,2023-05-12 12:46:26,-19.36200125,67.55050974,36.52047348,26.62653923,1003.664307,335.0749544,68.94405243,254.4697866,0.01756799966,0.03684400022,0.01463999972,0.001018393785,0.0005178526044,-0.00119844079,-6.279726982,-0.4554215372,-13.29911423,0,0
111,2023-05-12 12:46:27,-19.35427083,67.55695356,36.57381439,27.43427467,1003.664063,335.0954979,69.01457413,254.4068464,0.01756799966,0.03635599837,0.01317599975,-0.0005692914128,-0.0006927326322,0.000912649557,-6.234736443,-0.4916276336,-13.31091785,0,0
112,2023-05-12 12:46:27,-19.34858182,67.56169515,36.85829926,26.27774429,1003.662842,335.1462445,68.97603137,254.3455727,0.01878799871,0.03806399927,0.01390799973,0.0006148889661,0.003793329,0.002158153802,-6.480500698,-0.3336099982,-13.55808449,0,0
113,2023-05-12 12:46:27,-19.34259024,67.56668839,36.57381439,27.56889725,1003.655273,335.202988,68.96535579,254.239657,0.01854399964,0.0361119993,0.01439599972,-0.0002910718322,-0.0002302750945,0.001839864999,-6.057523727,-0.5791224241,-13.5265398,0,0
114,2023-05-12 12:46:27,-19.33654419,67.57172648,37.46282196,26.35729408,1003.647705,335.2054298,68.89102284,254.2881855,0.01805599965,0.03708799928,0.01439599972,0.0002640858293,-0.00204102695,-0.0002938415855,-6.22258997,-0.4959253967,-13.90223598,0,0
115,2023-05-12 12:46:27,-19.33093995,67.57639592,36.80495453,25.59545135,1003.648193,335.2576466,68.75469909,254.3539875,0.0173240006,0.03684400022,0.01463999972,-7.81E-05,-0.0007552430034,0.0003414079547,-6.38405323,-0.6246917248,-13.34402943,0,0
116,2023-05-12 12:46:27,-19.32514046,67.58122754,36.5915947,26.11558533,1003.646729,335.3458243,68.74565592,254.2987928,0.01756799966,0.03708799928,0.0153719997,-0.00180991739,-0.0013705194,-0.0005516782403,-6.109708786,-0.7379522324,-13.27104568,0,0
117,2023-05-12 12:46:27,-19.31891409,67.58641424,36.48491287,25.58015442,1003.645264,335.3274955,68.81563121,254.2864575,0.01830000058,0.03562399745,0.0156159997,0.0009527057409,0.0008013248444,-0.0005252733827,-6.117101669,-0.4702091217,-12.97616005,0,0
118,2023-05-12 12:46:27,-19.31313728,67.59122592,36.52047348,26.20431328,1003.647949,335.2786374,68.73923554,254.3307512,0.01951999962,0.03660000116,0.0104919998,2.40E-05,-0.0001172870398,0.0007202830166,-6.212251186,-0.1777807474,-13.20633888,0,0
119,2023-05-12 12:46:28,-19.30727814,67.59610566,36.71605682,25.6352272,1003.640137,335.2622501,68.86210382,254.2523953,0.01756799966,0.03635599837,0.01268799976,-0.0005336552858,-0.0001042112708,0.0001410227269,-6.357858658,0.05224750936,-13.04891014,0,0
120,2023-05-12 12:46:33,-19.30117705,67.60118636,36.80495453,26.08804893,1003.642578,335.2095825,68.87492408,254.2019749,0.01781199872,0.03684400022,0.01439599972,-0.0005573816597,-0.001648917794,0.001042267308,-6.62468338,-0.200548932,-12.928936,0,0
121,2023-05-12 12:46:33,-19.01790501,67.83646946,36.84051514,26.32975769,1003.659424,335.0360069,68.37236559,254.595223,0.01878799871,0.0361119993,0.01268799976,-0.0005407817662,0.00018594414,-0.002004316077,-6.737613201,0.05507643148,-13.17773151,0,0
122,2023-05-12 12:46:33,-19.0139888,67.83971389,37.21389771,25.45165062,1003.664063,334.985262,68.47914877,254.3259974,0.01854399964,0.03757599741,0.01341999974,-0.00191186741,0.001710414886,8.07E-05,-6.578262806,-0.2677894235,-12.42690659,0,0
123,2023-05-12 12:46:34,-19.00989587,67.84310448,36.98275757,26.29304123,1003.658691,334.9593398,68.4684322,254.1008676,0.0204959996,0.03684400022,0.01317599975,-0.001049410552,0.0001211985946,0.001222018152,-6.513269424,-0.2766094208,-12.80291653,0,0
124,2023-05-12 12:46:34,-19.00614949,67.84620777,36.98275757,25.30784988,1003.664307,334.8998369,68.54210945,253.937708,0.01805599965,0.0378200002,0.01610399969,0.0001567341387,0.001890577376,-0.0009256973863,-6.629706383,-0.1086295322,-12.62971783,0,0
125,2023-05-12 12:46:34,-19.00208025,67.84957827,36.78717804,25.32926559,1003.662354,334.9080297,68.50561575,253.6937336,0.01951999962,0.03537999839,0.01293199975,-4.33E-05,-0.0005068778992,0.0008964892477,-6.710361481,-0.2708500326,-12.06546211,0,0
126,2023-05-12 12:46:34,-18.9983383,67.85267747,36.78717804,25.99932098,1003.654297,334.8544434,68.61259701,253.4039834,0.01756799966,0.0378200002,0.01122399978,-0.003367904574,0.001028768718,-0.0009446386248,-6.612017632,-0.2741676867,-12.40459538,0,0
127,2023-05-12 12:46:34,-18.99427444,67.85604304,36.85829926,26.58982468,1003.64917,334.8795853,68.7079123,253.2373472,0.02073999867,0.03464800119,0.01317599975,-0.0005598478019,9.04E-05,-0.0009128302336,-5.626131535,0.05392124504,-13.00452042,0,0
128,2023-05-12 12:46:34,-18.99052544,67.85914764,36.85829926,27.04570389,1003.649414,334.7203344,68.7887954,253.4447937,0.01854399964,0.03708799928,0.01317599975,-0.0008724033833,-0.001992158592,-0.0009181816131,-6.055324078,-0.3199176788,-12.89056492,0,0
129,2023-05-12 12:46:34,-18.98644246,67.86252858,37.03609848,26.91108322,1003.638428,334.7652138,68.84673589,253.4519313,0.01781199872,0.03635599837,0.01415199973,-0.0008695535362,8.67E-05,0.0002531986684,-6.535052299,-0.2466285378,-12.14691734,0,0
130,2023-05-12 12:46:34,-18.98264967,67.86566901,37.03609848,25.95954514,1003.643799,334.8259598,68.84233725,253.2307424,0.01805599965,0.03586800024,0.01317599975,-0.0002169236541,0.0004510208964,0.001452099532,-6.460312843,-0.1450495869,-12.15120125,0,0
131,2023-05-12 12:46:34,-18.97772578,67.86974568,36.55603409,26.31445885,1003.638916,334.8798534,68.84114197,253.0102913,0.01951999962,0.03660000116,0.01366399974,-0.001728590578,-0.0001301839948,0.0005799960345,-6.44802618,-0.08033934981,-12.172472,0,0
132,2023-05-12 12:46:34,-18.97361548,67.87314847,36.55603409,26.00849915,1003.642334,334.8921426,68.88077072,252.8535316,0.01805599965,0.03562399745,0.01488399971,0.0009739436209,0.00105920434,-0.0009893737733,-6.503255367,-0.03106370568,-12.990798,0,0
133,2023-05-12 12:46:34,-18.96792862,67.87785604,36.68049622,25.56791496,1003.639893,334.9027995,68.77208192,252.8093608,0.01854399964,0.03660000116,0.01512799971,-0.0005417689681,-0.001952826977,-0.0003539472818,-6.488530159,-0.0919387117,-13.28477001,0,0
134,2023-05-12 12:46:35,-18.96181186,67.88291895,36.75161743,26.27468491,1003.637207,334.8948696,68.75998566,252.825924,0.01927600056,0.03635599837,0.01341999974,-0.001056812704,-0.001637980342,-0.001301206648,-6.383102417,-0.06200013682,-13.32364655,0,0
135,2023-05-12 12:46:35,-18.95622226,67.88754504,36.53825378,26.95697594,1003.634277,334.9091635,68.84494638,252.8388194,0.01756799966,0.03489200026,0.01268799976,-0.0006870701909,-0.001930586994,0.0002465546131,-6.298638821,-0.3954215646,-13.22969723,0,0
136,2023-05-12 12:46:35,-18.95021648,67.89251507,37.26724243,26.16453934,1003.637207,334.9040665,68.85107306,252.9240055,0.01951999962,0.03733199835,0.01341999974,-0.0006123408675,-0.001347437501,-0.001245617867,-6.173183918,-0.4343543053,-12.9575491,0,0
137,2023-05-12 12:46:35,-18.94400066,67.89765835,36.609375,25.77596855,1003.634521,334.8534445,68.94505646,252.9958044,0.01903199963,0.03635599837,0.01366399974,0.0003032125533,-0.0006972774863,0.002420280129,-6.08435297,-0.4516025484,-13.01215839,0,0
138,2023-05-12 12:46:35,-18.93779859,67.9027897,36.57381439,27.41591644,1003.642578,334.7802983,68.88107125,253.117252,0.01781199872,0.03733199835,0.01268799976,-0.001508869231,-0.002188138664,0.0008829347789,-6.370833397,-0.4884792268,-12.97207165,0,0
139,2023-05-12 12:46:35,-18.93177448,67.90777326,36.75161743,26.84683037,1003.645996,334.7796324,68.98931609,253.1306324,0.01830000058,0.03684400022,0.01463999972,0.002759825438,-0.001287803054,-0.002157242969,-6.010549068,-0.5848696232,-13.26754189,0,0
140,2023-05-12 12:46:35,-18.92581197,67.91270535,37.30280304,25.92588997,1003.649902,334.8224337,68.99339371,253.273274,0.01976399869,0.03660000116,0.01366399974,0.00111746043,0.00200612098,0.002463677898,-6.138803482,-0.6466346383,-13.55955219,0,0
141,2023-05-12 12:46:35,-18.91840483,67.91883169,36.36045074,26.07886887,1003.65332,334.8763513,69.02749685,253.3806514,0.01781199872,0.03660000116,0.01512799971,0.001339379698,-0.000133022666,0.001259878278,-6.039354324,-0.3408791721,-13.69918537,0,0
142,2023-05-12 12:46:36,-18.91233376,67.92385238,36.84051514,26.34199524,1003.651123,334.9017852,69.01585137,253.5484692,0.01903199963,0.03537999839,0.01463999972,0.001241903752,-0.001310609281,0.001527385786,-6.380921841,-0.09380620718,-13.73711681,0,0
143,2023-05-12 12:46:36,-18.90641683,67.92874508,37.39170074,24.72958374,1003.654053,334.9142639,69.00084545,253.590912,0.0204959996,0.0378200002,0.01341999974,-0.0003152601421,0.0008329078555,0.00210314244,-6.26750803,-0.5495846868,-13.4266758,0,0
144,2023-05-12 12:46:36,-18.90042968,67.93369534,36.6271553,26.36035347,1003.650391,334.8832907,69.09676179,253.6183284,0.01976399869,0.0361119993,0.01512799971,-0.001732245088,-8.26E-05,-0.001174416393,-6.280157089,-0.1266363561,-13.54496479,0,0
145,2023-05-12 12:46:36,-18.89420324,67.93884287,36.46713257,26.23490906,1003.645264,334.8680065,69.11121448,253.6480602,0.01781199872,0.0378200002,0.0153719997,0.00166432187,0.001457907259,0.00118114613,-6.544816971,-0.2142210454,-14.20007801,0,0
146,2023-05-12 12:46:36,-18.88840815,67.9436333,36.37823105,26.11864471,1003.6521,334.8848361,69.09870157,253.7163279,0.01854399964,0.03660000116,0.01146799978,-0.001579079777,0.0005107298493,0.0008725598454,-6.640538692,-0.01523271296,-13.94487858,0,0
147,2023-05-12 12:46:36,-18.88278509,67.94828106,37.01831818,25.28337097,1003.6521,334.8990002,69.08473383,253.7207607,0.01634800062,0.0378200002,0.01415199973,-0.001875381917,0.001693770289,-1.00E-06,-6.803271294,-0.09350800514,-13.74764633,0,0
148,2023-05-12 12:46:36,-18.87654505,67.95343824,36.46713257,26.2502079,1003.651855,334.9410144,69.11426757,253.6007474,0.01878799871,0.03635599837,0.01488399971,-0.001351114362,0.001736409962,1.90E-05,-6.630424976,0.08593033999,-13.03541756,0,0
149,2023-05-12 12:46:36,-18.87034678,67.95856034,36.75161743,26.85601044,1003.653809,334.9069846,68.97846292,253.5344263,0.01854399964,0.0361119993,0.01390799973,0.0008143074811,-0.0001098066568,0.0009040217847,-6.080326557,0.2273035049,-13.08812714,0,0
150,2023-05-12 12:46:37,-18.86452901,67.96336749,36.44935226,25.74231339,1003.655518,334.8887361,68.96353213,253.5498147,0.01903199963,0.03586800024,0.01683599874,-0.0004075914621,0.0005007907748,0.000904256478,-5.979290009,0.0847972706,-13.48180866,0,0
151,2023-05-12 12:46:37,-18.85675026,67.96979421,36.52047348,26.25938606,1003.661133,334.8999598,68.8742274,253.6408885,0.01854399964,0.03635599837,0.01610399969,-0.0004079155624,-0.001331724226,-0.001844530925,-6.41937685,0.02806290425,-13.50854015,0,0
152,2023-05-12 12:46:37,-18.8510587,67.97449596,36.75161743,26.18289566,1003.658203,334.8352216,68.77146038,253.7082,0.01756799966,0.03733199835,0.01415199973,-0.002545759082,-0.0004157647491,0.0002932716161,-6.260551929,-0.1584720612,-13.52602386,0,0
153,2023-05-12 12:46:37,-18.84477961,67.97968252,36.96497726,26.20125389,1003.661133,334.8303192,68.77486181,253.7455406,0.01903199963,0.03586800024,0.01683599874,-0.001629371196,-0.0004157498479,0.0009038858116,-6.250039101,-0.4806213677,-13.82331467,0,0
154,2023-05-12 12:46:37,-18.83890201,67.98453692,36.84051514,25.08449745,1003.662598,334.8251078,68.75599683,253.8580407,0.01854399964,0.03586800024,0.01244399976,0.003257330507,-0.0007207915187,0.0005985088646,-6.303309441,-0.1501235366,-13.75568295,0,0
155,2023-05-12 12:46:37,-18.83288172,67.98950866,36.80495453,26.18289566,1003.672119,334.855345,68.81901215,253.8713664,0.01878799871,0.03660000116,0.01244399976,0.00203537941,0.0008063167334,0.0005983579904,-6.269375324,-0.2563528717,-13.85837841,0,0
156,2023-05-12 12:46:37,-18.82720175,67.99419886,37.24945831,24.79383469,1003.671631,334.8060464,69.04152606,253.9080855,0.01927600056,0.03733199835,0.01512799971,-0.0001027174294,-0.001636862755,0.002125268802,-6.333539963,-0.1483239383,-13.80144215,0,0
157,2023-05-12 12:46:37,-18.82094435,67.99936534,36.64493561,27.08853912,1003.673096,334.7766459,68.94710552,253.9938043,0.01854399964,0.03830799833,0.01463999972,0.002035342157,0.0001954883337,-0.000623697415,-6.548173428,-0.1705664992,-13.95241737,0,0
158,2023-05-12 12:46:38,-18.81527732,68.00404388,37.32057953,26.66325378,1003.664551,334.7780922,68.96480254,253.9874386,0.01878799871,0.03562399745,0.01293199975,-0.0007134601474,-0.0007204189897,-1.30E-05,-6.348752022,-0.5776895881,-13.60998917,0,0
159,2023-05-12 12:46:38,-18.80900671,68.00922018,37.26724243,24.75406075,1003.654541,334.7757562,69.02512677,254.0179764,0.01805599965,0.03562399745,0.01341999974,0.001119349152,-0.0004151761532,0.0009032413363,-6.452453136,-0.2812186778,-13.73331356,0,0
160,2023-05-12 12:46:38,-18.80323658,68.01398283,37.40948486,26.36953163,1003.652832,334.7770164,68.9911739,254.0369985,0.01903199963,0.03635599837,0.01512799971,0.001729864627,0.0005011036992,-1.30E-05,-6.320354462,-0.346709758,-13.71998024,0,0
161,2023-05-12 12:46:38,-18.79542476,68.02042993,36.57381439,26.80399704,1003.645264,334.7631238,68.95325952,254.1040777,0.01854399964,0.03660000116,0.01268799976,-0.001324038953,0.0008067041636,0.0002925377339,-6.387840271,-0.2986075878,-13.79773808,0,0
162,2023-05-12 12:46:38,-18.78973414,68.02512584,37.35614014,26.23490906,1003.641602,334.698319,69.06760372,254.1493004,0.01903199963,0.03635599837,0.01293199975,-0.001323282719,0.001417450607,0.001819731668,-6.311911583,-0.3771028519,-13.59107113,0,0
163,2023-05-12 12:46:38,-18.78345828,68.03030415,37.37392426,25.96566391,1003.642822,334.6123644,69.10592108,254.2184219,0.01854399964,0.03757599741,0.0156159997,-0.001628961414,0.0001955255866,0.001819530502,-6.430354118,-0.2994745374,-13.49834347,0,0
164,2023-05-12 12:46:38,-18.77777133,68.03499606,36.68049622,26.98145294,1003.643066,334.644883,69.1413561,254.1892092,0.01951999962,0.03635599837,0.01512799971,-0.001323338598,-0.001331456006,0.001513794065,-6.323162556,-0.2746382356,-12.77324295,0,0
165,2023-05-12 12:46:38,-18.7715149,68.04015725,36.87607574,27.1711483,1003.643555,334.6754225,69.04435375,254.1137834,0.01903199963,0.03635599837,0.01390799973,-0.001933962107,0.001722708344,0.001819001511,-6.230872631,-0.2712640166,-13.53268147,0,0
166,2023-05-12 12:46:39,-18.76585273,68.04482774,37.33836365,26.02073669,1003.639404,334.6707557,69.05018674,254.141193,0.01830000058,0.03684400022,0.01293199975,0.0002040266991,0.0001959428191,-0.0006244815886,-6.129624844,0.2146387845,-13.44966793,0,0
167,2023-05-12 12:46:39,-18.75961221,68.04997473,37.19612122,26.08498764,1003.634277,334.6883588,69.06588934,254.1460902,0.01830000058,0.03684400022,0.01488399971,-0.0007115416229,0.0005013793707,-0.0006245020777,-6.381063938,0.01980791055,-13.68678665,0,0
168,2023-05-12 12:46:39,-18.75374208,68.05481574,36.68049622,25.17016602,1003.641357,334.6763889,69.0690927,254.1635345,0.01830000058,0.03586800024,0.01244399976,0.001120775938,-0.002553090453,0.0002918243408,-6.398088932,-0.3782067597,-14.00828648,0,0
169,2023-05-12 12:46:39,-18.74764578,68.05984273,36.48491287,26.17983627,1003.64624,334.6338625,69.03111002,254.2333254,0.01878799871,0.03562399745,0.01415199973,0.001121405512,0.0001958981156,-0.0003189835697,-6.628880978,-0.1321532428,-13.58581257,0,0
170,2023-05-12 12:46:39,-18.74189931,68.06458077,36.76939392,25.24359703,1003.648438,334.6406346,69.08888659,254.1646615,0.01878799871,0.03733199835,0.01634800062,0.003564596176,-0.0004151538014,-0.0006245151162,-6.246175289,0.09104824811,-14.36031723,0,0
171,2023-05-12 12:46:39,-18.73450764,68.07067459,36.48491287,24.9957695,1003.650635,334.6024863,68.95982333,254.2663699,0.01878799871,0.03757599741,0.0156159997,0.0005104541779,-0.0004155263305,0.0009028315544,-6.273800373,0.1033712924,-14.50782681,0,0
172,2023-05-12 12:46:39,-18.72881961,68.07536337,36.78717804,26.34811401,1003.657471,334.6547799,68.80965479,254.4056921,0.01805599965,0.03684400022,0.01463999972,-0.001322261989,-0.001331686974,-0.0003187656403,-5.971168995,-0.1014810801,-14.41425037,0,0
173,2023-05-12 12:46:39,-18.72300276,68.08015785,36.46713257,26.59594345,1003.651123,334.717423,68.7165115,254.5766722,0.01756799966,0.03757599741,0.01341999974,-0.003154363483,-0.001942649484,-0.0003186594695,-5.928632259,-0.293609798,-13.77547646,0,0
174,2023-05-12 12:46:40,-18.71671413,68.08534066,36.53825378,26.30834007,1003.646484,334.7175254,68.83638132,254.6657515,0.0173240006,0.03635599837,0.01610399969,-0.001016274095,-0.07829396427,0.001513684168,-6.406451225,-0.2120643258,-13.76927185,0,0
175,2023-05-12 12:46:40,-18.71081721,68.09020011,36.73383331,26.25632668,1003.645264,334.6734212,68.79121328,254.5593987,0.01951999962,0.03733199835,0.01415199973,-0.0007102414966,0.002950504422,-0.002151373774,-6.335403442,-0.3273784518,-13.53696728,0,0
176,2023-05-12 12:46:40,-18.70513298,68.09488382,36.39601135,27.07936096,1003.637207,334.6310467,68.83905193,254.5707368,0.01585999876,0.03733199835,0.01512799971,0.0008169002831,0.001117713749,-0.0006242319942,-6.105621815,-0.3336496055,-14.0736618,0,0
177,2023-05-12 12:46:40,-18.69906493,68.09988327,36.46713257,26.23490906,1003.630127,334.6718315,68.88536744,254.6392641,0.01781199872,0.03684400022,0.01390799973,-0.001015864313,-0.0001039355993,-0.0009292755276,-6.537317753,-0.5936015248,-13.9377594,0,0
178,2023-05-12 12:46:40,-18.69338747,68.10456045,36.87607574,26.08804893,1003.625732,334.7406234,68.93383446,254.5665567,0.01830000058,0.03708799928,0.01488399971,-0.0007102712989,0.0008123070002,0.001208575442,-6.246799946,-0.3487232625,-14.00715256,0,0
179,2023-05-12 12:46:40,-18.68709062,68.10974734,36.37823105,25.96260452,1003.62793,334.7961392,68.83455766,254.6456503,0.01830000058,0.03635599837,0.0153719997,-9.93E-05,0.002339042723,-0.000929472968,-6.026980877,-0.259354949,-13.97671509,0,0
180,2023-05-12 12:46:46,-18.68129275,68.11452271,36.80495453,26.07580948,1003.631348,334.7828494,68.6833441,254.8060095,0.01976399869,0.03635599837,0.01195599977,-0.0004046969116,-0.001631446183,-0.0006240885705,-6.479596138,-0.1233261004,-13.56011391,0,0
181,2023-05-12 12:46:46,-18.39747375,68.34770305,37.21389771,26.25632668,1003.644775,334.5860716,68.28077276,255.1469042,0.01976399869,0.03635599837,0.01341999974,0.002649456263,0.001728378236,-0.0006239823997,-6.242764473,-0.03977294639,-13.56144238,0,0
182,2023-05-12 12:46:46,-18.39319095,68.35121301,36.82273865,27.04570389,1003.647949,334.5220676,68.39094371,255.1011556,0.01951999962,0.03537999839,0.01707999967,-0.001626588404,-0.001936987042,-0.001234687865,-6.034943104,-0.3193292022,-13.81532192,0,0
183,2023-05-12 12:46:46,-18.38943219,68.35429328,36.41379166,25.20382309,1003.651611,334.5798203,68.2998563,255.1548545,0.01903199963,0.03635599837,0.01585999876,0.0002060942352,0.0008118227124,0.001208493486,-6.14796257,-0.6034118533,-13.77268887,0,0
184,2023-05-12 12:46:46,-18.38549955,68.35751582,36.44935226,26.39400864,1003.653076,334.6101429,68.33365208,255.2303486,0.01951999962,0.03562399745,0.01317599975,0.0002061761916,-0.0001041814685,0.001513622701,-5.643828869,-0.0007308464847,-13.15352058,0,0
185,2023-05-12 12:46:46,-18.38122424,68.36101892,36.84051514,26.23796844,1003.656006,334.5796598,68.3560551,255.3255546,0.01659199968,0.03733199835,0.01585999876,0.002649459988,-0.001020275056,0.0005970969796,-5.642982483,-0.1419047862,-13.00974655,0,0
186,2023-05-12 12:46:46,-18.37745977,68.36410324,36.43157196,26.00238037,1003.653809,334.7061242,68.28642132,255.3218663,0.02000799961,0.03586800024,0.01293199975,0.001121975482,0.001423433423,0.001818602905,-5.623800755,-0.1857759506,-13.37351131,0,0
187,2023-05-12 12:46:47,-18.37351636,68.36733396,36.71605682,26.27468491,1003.662842,334.7187344,68.27866223,255.4175846,0.01854399964,0.03660000116,0.0153719997,0.0002057887614,0.0002018734813,-0.001541174948,-5.834393024,-0.3225834668,-13.86007977,0,0
188,2023-05-12 12:46:47,-18.369236,68.37084048,37.08943939,26.00849915,1003.661865,334.7227727,68.26457155,255.5414023,0.0173240006,0.03806399927,0.01244399976,0.0008166618645,-0.0004088208079,0.001207493246,-5.578446865,-0.4145215452,-13.56343555,0,0
189,2023-05-12 12:46:47,-18.36514158,68.37419444,36.96497726,27.04876518,1003.662842,334.7136288,68.42598941,255.6526114,0.01878799871,0.03586800024,0.01171199977,0.0008167251945,0.0002025663853,0.0005968362093,-5.815620422,-0.3791212142,-13.72624588,0,0
190,2023-05-12 12:46:47,-18.3613428,68.37730601,36.71605682,26.11864471,1003.667725,334.7649475,68.5146316,255.7070685,0.01805599965,0.03660000116,0.0153719997,-0.002848330885,-0.001629695296,0.001513218507,-6.083355427,-0.1829889864,-14.44343185,0,0
191,2023-05-12 12:46:47,-18.35654131,68.38123862,36.78717804,26.14618111,1003.664063,334.8473042,68.43009435,255.7744278,0.0204959996,0.0361119993,0.01268799976,0.0005115643144,-0.0001026540995,0.0005967710167,-6.045522213,-0.1236626506,-14.02536106,0,0
192,2023-05-12 12:46:47,-18.35195451,68.38499508,37.37392426,26.4552002,1003.666992,334.8151818,68.31749868,255.8782262,0.01707999967,0.03684400022,0.01219999976,-0.001625988632,0.0002026632428,-1.41E-05,-5.738893509,-0.5999567509,-13.8832407,0,0
193,2023-05-12 12:46:47,-18.34625405,68.38966319,36.37823105,25.50060463,1003.662109,334.8789945,68.47367779,255.9297737,0.02025200054,0.0361119993,0.01366399974,-0.001931257546,-0.00101916492,0.0009019840509,-5.681524277,-0.4293858111,-14.10089493,0,0
194,2023-05-12 12:46:47,-18.34002817,68.39476105,36.94719696,26.18901443,1003.66333,334.8897948,68.42835265,256.1037181,0.01756799966,0.03733199835,0.01268799976,-0.0004044212401,-0.002240739763,0.001207191497,-5.886170387,-0.034722507,-13.6595583,0,0
195,2023-05-12 12:46:47,-18.33375808,68.39989456,36.53825378,27.58725548,1003.665771,334.8836783,68.52383187,256.095153,0.01781199872,0.03733199835,0.01707999967,0.003871593624,-0.0001029372215,0.001207377762,-5.580078602,-0.001595933572,-13.43955135,0,0
196,2023-05-12 12:46:47,-18.32805962,68.40455959,36.84051514,26.18595505,1003.666992,334.9006053,68.52275953,256.1186011,0.01927600056,0.03733199835,0.01171199977,-0.0007104277611,0.00142416358,-1.43E-05,-5.826669693,-0.03067821264,-13.88908958,0,0
197,2023-05-12 12:46:48,-18.32182255,68.40966503,36.71605682,26.20737267,1003.661377,334.8727432,68.57220327,256.1463316,0.01756799966,0.03708799928,0.0156159997,-0.0004053451121,0.00050778687,-0.001541145146,-5.857681274,-0.1337287873,-13.27059269,0,0
198,2023-05-12 12:46:48,-18.31597511,68.41445104,36.50269318,26.917202,1003.665039,334.9818316,68.5457636,256.056016,0.02000799961,0.03708799928,0.01415199973,-0.002543214709,-0.0007134526968,-1.42E-05,-5.560786724,-0.3847779632,-13.91441917,1,0
199,2023-05-12 12:46:48,-18.31029154,68.41910246,37.03609848,26.10028648,1003.657227,334.9629341,68.49466013,256.1440845,0.0173240006,0.03733199835,0.01463999972,0.0005111433566,0.0005079060793,-0.002151999623,-6.112016678,-0.3069436252,-14.09127808,1,0
200,2023-05-12 12:46:48,-18.30430496,68.42400139,36.71605682,24.84584808,1003.657471,334.9974778,68.43185654,256.1281565,0.01756799966,0.03684400022,0.01268799976,0.0005113556981,-0.001935318112,-1.39E-05,-5.893054485,-0.4565006793,-13.94832802,0,0
201,2023-05-12 12:46:48,-18.29648157,68.43040266,37.08943939,25.96566391,1003.656738,335.0551229,68.40731567,256.1666105,0.01854399964,0.03708799928,0.01463999972,0.002343371511,-0.001630008221,-0.000624621287,-6.048104286,-0.4223078489,-14.12075901,0,0
202,2023-05-12 12:46:48,-18.29080898,68.43504357,36.76939392,26.76728058,1003.661133,335.1174159,68.47764613,256.1279584,0.01830000058,0.03757599741,0.01781199872,-0.00101653114,0.0008135661483,-0.0006244629622,-5.912790298,-0.208211571,-13.89035034,0,0
203,2023-05-12 12:46:48,-18.28515676,68.43966736,36.80495453,26.23184967,1003.663086,335.240496,68.45529775,256.075605,0.01805599965,0.03733199835,0.0153719997,-0.001627411693,0.0008136034012,0.0002916585654,-5.830053806,-0.3783772886,-13.57692337,0,0
204,2023-05-12 12:46:48,-18.27926571,68.44448606,37.23168182,27.19562531,1003.669189,335.2609268,68.48486564,256.0609406,0.01830000058,0.03684400022,0.01512799971,-0.0004059821367,-0.002240777016,-0.001235781237,-5.721342564,-0.3915430307,-13.82210541,0,0
205,2023-05-12 12:46:49,-18.2731853,68.44945914,36.80495453,26.26550484,1003.674072,335.2602591,68.53331217,256.1180137,0.01903199963,0.03879600018,0.01366399974,0.0005101896822,-0.0001027956605,-1.41E-05,-6.012580395,-0.2666555345,-13.62418461,0,0
206,2023-05-12 12:46:49,-18.26759588,68.4540302,36.66271591,25.47612762,1003.667969,335.2399393,68.48179205,256.1421242,0.01756799966,0.0378200002,0.01390799973,-0.001322343946,0.001424327493,-1.41E-05,-5.869384289,-0.4888677895,-13.85267735,0,0
207,2023-05-12 12:46:49,-18.26155059,68.45897359,36.36045074,26.33281708,1003.666992,335.3053503,68.43654205,256.1695748,0.01781199872,0.03684400022,0.0156159997,-0.0004061162472,-0.001629762352,-1.40E-05,-5.614151478,-0.3336146474,-13.65995598,0,0
208,2023-05-12 12:46:49,-18.25589297,68.4635995,36.5915947,27.15279198,1003.657715,335.2659726,68.3958068,256.2981872,0.01951999962,0.03757599741,0.01122399978,0.001731943339,-0.0007136389613,0.000902319327,-6.14667654,-0.7938789725,-13.86991405,0,0
209,2023-05-12 12:46:49,-18.25010061,68.46833513,36.48491287,26.40930748,1003.657715,335.2552116,68.45667062,256.2843971,0.01854399964,0.03733199835,0.01512799971,-0.001322679222,-0.0007135570049,0.00181844458,-5.95250988,-0.6707851887,-13.75221348,0,0
210,2023-05-12 12:46:49,-18.24370573,68.47356281,36.44935226,25.81268311,1003.666992,335.251677,68.4050139,256.3147299,0.02025200054,0.03537999839,0.01439599972,0.001731678843,0.0005082860589,0.002429161221,-6.04884243,-0.9719443917,-13.69842052,1,0
211,2023-05-12 12:46:49,-18.23625783,68.47965061,37.19612122,26.74280357,1003.66748,335.2013436,68.37606072,256.3373242,0.01756799966,0.03537999839,0.01293199975,0.001120664179,-0.002240009606,0.0005963891745,-6.183722019,-0.6734671593,-12.89192772,1,0
212,2023-05-12 12:46:49,-18.23019826,68.48460303,36.37823105,26.15229988,1003.672852,335.1840564,68.42557277,256.169363,0.0173240006,0.0361119993,0.01659199968,-0.000406563282,0.002035826445,-0.0009307675064,-5.996624947,-0.4748240411,-13.23268414,0,0
213,2023-05-12 12:46:50,-18.2243299,68.4893987,36.6271553,26.24102783,1003.668213,335.2026618,68.26824619,256.1364962,0.01976399869,0.03733199835,0.01390799973,0.0005096122622,0.0005086138844,0.001207213849,-5.492409706,-0.3799941242,-13.71979713,0,0
214,2023-05-12 12:46:50,-18.21826357,68.49435565,36.43157196,26.1217041,1003.665283,335.2044513,68.25913472,256.2341269,0.01805599965,0.03733199835,0.01195599977,-0.001323148608,0.0002030357718,-0.0003196615726,-5.575444698,-0.3492394984,-14.27352333,0,0
215,2023-05-12 12:46:50,-18.21237934,68.49916332,36.80495453,25.36598206,1003.659912,335.1664909,68.38241963,256.3601234,0.01903199963,0.03684400022,0.01341999974,0.0002039968967,0.001730412245,0.0002910792828,-5.656815052,-0.4459857643,-14.42977428,0,0
216,2023-05-12 12:46:50,-18.20651396,68.50395511,37.46282196,26.33893585,1003.660889,335.1303216,68.48548719,256.4794468,0.01830000058,0.03635599837,0.01659199968,-0.001323133707,-0.001324012876,0.0009018983692,-6.457714081,-0.5043601394,-13.83336258,0,0
217,2023-05-12 12:46:50,-18.20080437,68.50861918,36.75161743,24.87032509,1003.658936,335.1624149,68.40432405,256.4046289,0.0173240006,0.03635599837,0.01488399971,-0.0001014694571,-0.0007130131125,-1.44E-05,-6.294154644,-0.3251586854,-14.17866611,0,0
218,2023-05-12 12:46:50,-18.19474755,68.51356639,36.84051514,26.02379608,1003.668213,335.1226923,68.37139571,256.377513,0.01805599965,0.03586800024,0.01317599975,-0.001323319972,0.0002034008503,-0.000320000574,-5.741491795,-0.2906866372,-14.28777313,0,0
219,2023-05-12 12:46:50,-18.18885942,68.51837533,37.17834091,26.31139946,1003.667236,335.1049235,68.42310707,256.454339,0.01878799871,0.03537999839,0.01244399976,0.001730933785,0.0005087554455,-1.45E-05,-5.801690102,-0.424851954,-13.92794323,0,0
220,2023-05-12 12:46:50,-18.18291112,68.52323293,36.80495453,26.42766571,1003.65625,335.1119791,68.39455688,256.5186657,0.01830000058,0.03708799928,0.01219999976,-0.001934424043,0.002646557987,0.0005962010473,-6.090353966,-0.6368980408,-14.07733345,0,0
221,2023-05-12 12:46:51,-18.1748794,68.52979116,36.55603409,25.88917351,1003.659912,335.0446369,68.57109678,256.5236654,0.01878799871,0.03635599837,0.01805599965,-0.00132355094,0.001730114222,-1.48E-05,-5.934987068,-0.5029296875,-14.21695328,0,0
222,2023-05-12 12:46:51,-18.16917758,68.53444639,36.44935226,26.1737175,1003.654053,335.0876192,68.27500808,256.639642,0.01854399964,0.03806399927,0.01463999972,-0.001323364675,-0.0004080533981,0.002428270876,-5.960966587,-0.3854504228,-14.82758713,0,0
223,2023-05-12 12:46:51,-18.16314636,68.53937006,36.71605682,23.90960884,1003.650146,335.0928187,68.37655933,256.7108741,0.01781199872,0.03733199835,0.01366399974,0.0002036765218,-0.001935049891,-0.0003205146641,-6.005787373,-0.1844029576,-14.43397331,0,0
224,2023-05-12 12:46:51,-18.1574504,68.54401959,36.55603409,26.29916,1003.654053,335.1077803,68.34509265,256.7587469,0.01805599965,0.03635599837,0.01439599972,0.0002040676773,-0.002240471542,0.0002901237458,-6.411606789,-0.4927418232,-14.31041622,0,0
225,2023-05-12 12:46:51,-18.15181037,68.54862301,36.41379166,26.24714851,1003.655762,335.0855617,68.37446929,256.6507479,0.01805599965,0.03903999925,0.01244399976,-0.0007123015821,0.0005085244775,-0.0009311381727,-6.434351444,-0.6218320727,-14.38056374,0,0
226,2023-05-12 12:46:51,-18.14593068,68.55342159,37.17834091,26.10028648,1003.655762,335.0285706,68.42830484,256.5976979,0.01854399964,0.03635599837,0.01634800062,0.000204462558,0.0005085542798,0.0005960538983,-6.118552208,-0.6758108139,-14.79474258,0,0
227,2023-05-12 12:46:51,-18.14024187,68.55806393,37.33836365,26.39094925,1003.655029,334.9942813,68.35355525,256.6936415,0.0173240006,0.03660000116,0.01293199975,0.000509724021,0.001119293272,0.001817636192,-6.25953722,-0.2944375873,-14.65855789,0,0
228,2023-05-12 12:46:51,-18.13396222,68.56318791,37.32057953,26.23490906,1003.656738,335.0117888,68.37775461,256.6723313,0.01830000058,0.03562399745,0.01268799976,0.001731127501,-0.0001022294164,-0.0003203339875,-5.932479382,-0.2880402207,-14.84848213,0,0
229,2023-05-12 12:46:52,-18.12814495,68.56793412,37.48060226,26.29916,1003.665771,334.9814969,68.47634156,256.7148424,0.02000799961,0.0361119993,0.01610399969,-0.001323163509,-0.001323543489,-0.0003203544766,-5.858991146,-0.07978224009,-14.95721817,1,0
230,2023-05-12 12:46:52,-18.12195124,68.57298695,36.78717804,25.95036697,1003.677734,334.9357483,68.40184469,256.8660696,0.01878799871,0.03757599741,0.01366399974,-0.0001015774906,0.001730784774,0.001511862502,-5.798202991,-0.02835022099,-14.94255066,1,0
231,2023-05-12 12:46:52,-18.11413088,68.57936605,37.17834091,26.23184967,1003.678711,334.8619635,68.44757964,257.0114229,0.01951999962,0.03684400022,0.01585999876,-0.0001021102071,-0.0007129758596,0.001206409186,-6.125727177,-0.1458610594,-14.67042351,0,0
232,2023-05-12 12:46:52,-18.10823122,68.58417788,36.52047348,26.28998184,1003.680664,334.8403852,68.45041416,257.0107672,0.01805599965,0.03635599837,0.01488399971,-0.0004073046148,-0.0004073232412,-0.002153139561,-5.787775517,-0.2587512136,-13.98750305,0,0
233,2023-05-12 12:46:52,-18.1021751,68.58911682,37.39170074,26.78257942,1003.677734,334.9343771,68.43239612,256.9669242,0.01976399869,0.03562399745,0.0173240006,0.0005087964237,0.002036042511,0.0009009838104,-5.952929497,-0.1904543936,-13.95646667,0,0
234,2023-05-12 12:46:52,-18.09601018,68.59414397,37.48060226,26.29610062,1003.671143,335.0019823,68.20871426,256.9474992,0.02000799961,0.03660000116,0.01317599975,-0.002239748836,-0.0001014694571,-0.0009317602962,-6.023014545,-0.2724922895,-14.19793129,0,0
235,2023-05-12 12:46:52,-18.09014014,68.59893018,36.68049622,26.16453934,1003.664307,334.9822414,68.12990754,256.942841,0.01830000058,0.03586800024,0.01439599972,0.002646975219,0.0005092993379,-0.002153459936,-5.919919491,-0.2041041255,-13.9842577,0,0
236,2023-05-12 12:46:52,-18.08404449,68.60389985,36.39601135,26.08498764,1003.66626,334.9942676,68.22496328,256.9148782,0.01756799966,0.0361119993,0.01415199973,-0.002851210535,-0.0007121413946,0.001511681825,-5.783461094,-0.1902666241,-14.00017262,0,0
237,2023-05-12 12:46:53,-18.0781666,68.60869149,36.41379166,26.4307251,1003.665283,334.9702168,68.19290237,256.947745,0.01805599965,0.03586800024,0.01488399971,-0.0004079192877,0.0005093887448,-1.55E-05,-5.838675976,-0.02740936168,-14.10457897,0,0
238,2023-05-12 12:46:53,-18.07230768,68.61346721,36.76939392,26.62653923,1003.656738,334.9959906,67.98803768,256.9814862,0.02000799961,0.03733199835,0.01195599977,0.002341106534,0.0008146762848,-1.56E-05,-6.116641045,-0.4592535198,-14.20464706,0,0
239,2023-05-12 12:46:53,-18.06621343,68.61843425,36.50269318,26.17677689,1003.651855,334.9344608,68.00619915,256.9843139,0.01878799871,0.03562399745,0.01439599972,0.0008142627776,0.0002034008503,-0.003069788218,-6.015590191,-0.3390763998,-14.27383232,0,0
240,2023-05-12 12:46:59,-18.06018885,68.62334401,37.05387878,25.13957024,1003.649658,334.8745088,68.00846677,257.0061773,0.01878799871,0.03489200026,0.01585999876,-0.001628983766,-0.0007128715515,-0.0003208648413,-6.069962978,-0.09885463864,-14.25032616,0,0
241,2023-05-12 12:46:59,-17.77422049,68.85582981,36.78717804,26.43990326,1003.643555,335.5596775,68.71727648,256.6203331,0.01903199963,0.03757599741,0.01634800062,0.001119919121,-0.0001018717885,0.001817092299,-6.186598778,-0.1801974028,-14.15896797,0,0
242,2023-05-12 12:46:59,-17.77027154,68.85903253,37.00053787,26.48579788,1003.639648,335.5424211,68.70875241,256.5269371,0.01951999962,0.03489200026,0.01512799971,-0.001323148608,-0.0004070103168,0.002122117206,-5.731851578,-0.3729840815,-14.36685753,0,0
243,2023-05-12 12:46:59,-17.76616151,68.86236567,36.94719696,26.70302963,1003.641357,335.4129975,68.67483369,256.6511168,0.0173240006,0.0378200002,0.01488399971,-0.0004069469869,0.002647466958,0.00181658566,-5.819093704,-0.1186778545,-14.64881897,0,0
244,2023-05-12 12:46:59,-17.76239785,68.86541771,36.68049622,26.32057953,1003.645264,335.4615038,68.62251444,256.7566295,0.01781199872,0.03806399927,0.01659199968,-0.0007124207914,-0.00223916024,0.0009001381695,-5.366927624,-0.02333603241,-14.5174818,0,0
245,2023-05-12 12:46:59,-17.75845724,68.86861305,36.50269318,26.45214081,1003.643555,335.483234,68.40883197,256.9594861,0.01683599874,0.03513599932,0.01244399976,-0.001933757216,0.001426525414,-0.00184859708,-5.912824631,-0.02830989659,-14.52471542,0,0
246,2023-05-12 12:46:59,-17.75415614,68.87210045,37.01831818,26.70302963,1003.650391,335.4868199,68.42096922,256.9515426,0.0173240006,0.03830799833,0.01293199975,-0.0001009963453,-0.00162756443,-0.001237621531,-6.184514523,-0.1320298761,-14.31997013,0,0
247,2023-05-12 12:46:59,-17.75003582,68.87544105,36.30711365,26.21043205,1003.653076,335.5011035,68.52651613,256.8138324,0.01976399869,0.03537999839,0.0156159997,-0.0004062950611,-0.0004055127501,0.0002898778766,-6.460220337,-0.2513779998,-14.42105579,0,0
248,2023-05-12 12:46:59,-17.74626095,68.87850137,36.57381439,26.04215431,1003.649658,335.398065,68.47840428,256.7459539,0.01830000058,0.03635599837,0.01512799971,-0.001016512513,-0.001932181418,0.0005951356143,-6.196931839,-0.3246470094,-14.46290112,0,0
249,2023-05-12 12:46:59,-17.74231848,68.88169736,36.76939392,26.4307251,1003.651855,335.3558988,68.44432847,256.7167754,0.01927600056,0.03660000116,0.01512799971,-0.001321297139,-0.003153413534,0.0005947574973,-5.915024757,-0.2478094995,-14.37434483,0,0
250,2023-05-12 12:46:59,-17.73798765,68.88520795,36.55603409,26.84377098,1003.653809,335.3068769,68.30034808,256.785289,0.01976399869,0.03513599932,0.01756799966,-0.0004051439464,-0.001014962792,-0.0006269402802,-5.71239233,-0.3491853774,-14.04542828,0,0
251,2023-05-12 12:47:00,-17.73317515,68.88910867,37.1427803,26.46438026,1003.653809,335.2527527,68.14622486,256.8831929,0.01830000058,0.03586800024,0.01390799973,-0.00406973809,0.0005128234625,0.0005947686732,-5.832902908,-0.2908549607,-14.04873466,0,0
252,2023-05-12 12:47:00,-17.7289098,68.89256566,36.609375,26.0452137,1003.657471,335.1839352,68.09887799,256.9310247,0.01830000058,0.03537999839,0.01512799971,0.002955142409,-0.001929804683,0.001510739326,-5.751306057,-0.1891142875,-14.61716461,0,0
253,2023-05-12 12:47:00,-17.72322877,68.89716966,36.71605682,25.69641876,1003.647461,335.141518,68.13852041,257.0283618,0.01878799871,0.03586800024,0.01341999974,-0.0007097311318,-0.002540253103,0.001816151664,-5.716202259,-0.159269318,-14.73420811,0,0
254,2023-05-12 12:47:00,-17.71692335,68.90227917,36.41379166,26.28080368,1003.645996,335.0599023,68.16979584,257.1437237,0.01951999962,0.03660000116,0.01707999967,0.0008174367249,-0.002845086157,0.001815745607,-5.709160805,-0.2676225007,-14.58916569,0,0
255,2023-05-12 12:47:00,-17.71120528,68.90691227,36.76939392,26.41236687,1003.656982,334.9987704,68.18847641,257.2567291,0.01854399964,0.03660000116,0.01610399969,0.002650011331,-0.0007071793079,0.002426438034,-5.729441166,-0.07090406865,-14.46745872,0,0
256,2023-05-12 12:47:00,-17.70529006,68.91170465,36.73383331,26.35729408,1003.658203,334.9828493,68.18240437,257.2995886,0.01805599965,0.0361119993,0.0153719997,-0.001320730895,-9.61E-05,-0.001238696277,-5.810609341,-0.2750699818,-14.80834293,0,0
257,2023-05-12 12:47:00,-17.69962988,68.91628998,36.39601135,26.56534767,1003.651855,334.9698958,68.29480196,257.3399072,0.01756799966,0.03635599837,0.01122399978,-0.0004039108753,-0.000401288271,-0.0009331814945,-5.800849915,-0.4162692428,-14.49959755,0,0
258,2023-05-12 12:47:00,-17.69373548,68.92106459,36.78717804,26.15229988,1003.657715,335.0032886,68.28854551,257.3618116,0.01854399964,0.03586800024,0.01463999972,0.0002069361508,-0.003455013037,-0.0009331516922,-5.870948792,-0.6076907516,-14.57806683,0,0
259,2023-05-12 12:47:00,-17.68807013,68.92565324,36.6271553,25.69335938,1003.664063,334.9275657,68.32449963,257.4211386,0.01903199963,0.03586800024,0.01439599972,0.001123007387,0.0002106055617,0.0002884045243,-5.640939236,-0.5216414928,-14.59904861,0,0
260,2023-05-12 12:47:01,-17.6816987,68.93081327,37.35614014,26.11558533,1003.659424,334.909476,68.21081796,257.5426067,0.01903199963,0.03879600018,0.01488399971,-0.0007095262408,-0.0007052049041,0.0008989945054,-5.937130928,-0.4435140789,-14.06780338,0,0
261,2023-05-12 12:47:01,-17.67388012,68.93714456,36.75161743,26.20125389,1003.665771,334.8793446,68.22997664,257.5294313,0.01854399964,0.0378200002,0.0153719997,-0.001320101321,0.0005168393254,0.001510122791,-5.34719038,-0.7240179777,-14.23073006,0,0
262,2023-05-12 12:47:01,-17.66820261,68.94174156,36.44935226,26.33893585,1003.670898,334.9266693,68.11544803,257.647655,0.01878799871,0.03684400022,0.01512799971,-0.002541542053,0.0002117305994,-0.0003225952387,-5.583176613,-0.5941169262,-14.68082333,0,0
263,2023-05-12 12:47:01,-17.66217408,68.94662232,37.42726135,26.20125389,1003.66333,334.8964645,67.99386383,257.8332381,0.01756799966,0.03806399927,0.01366399974,-0.0004032738507,-0.002536699176,0.0002882219851,-5.50212574,-0.2530180514,-14.35382462,0,0
264,2023-05-12 12:47:01,-17.6561632,68.9514883,36.85829926,26.40624809,1003.673096,334.9592066,68.01452515,257.8615834,0.01756799966,0.03537999839,0.01488399971,-0.001929864287,0.002044923604,0.001204550266,-5.17009449,-0.243832916,-14.57903767,0,0
265,2023-05-12 12:47:01,-17.65030226,68.95623244,36.34267426,26.29916,1003.668457,334.9487615,67.96073058,258.0468318,0.01781199872,0.03660000116,0.01610399969,0.0005135238171,-0.002230845392,0.001815216616,-5.205739498,-0.4936785996,-14.34924412,0,0
266,2023-05-12 12:47:01,-17.64465226,68.96080541,36.84051514,28.51431656,1003.669922,334.9457682,67.87202008,258.2273605,0.02073999867,0.03586800024,0.01781199872,-0.002540692687,0.0002129077911,0.001814836636,-5.26869154,-0.4267630875,-13.9402256,0,0
267,2023-05-12 12:47:01,-17.63860043,68.96570314,37.30280304,26.24102783,1003.66748,334.8551077,67.79590446,258.4001916,0.01830000058,0.03635599837,0.01610399969,0.002040546387,-9.26E-05,0.001509308815,-5.631008148,-0.7459337115,-14.01990223,0,0
268,2023-05-12 12:47:02,-17.63255935,68.97059169,36.69827271,25.85857773,1003.66748,334.8118179,67.76433532,258.452265,0.01878799871,0.03708799928,0.01463999972,-0.001624017954,-9.25E-05,0.0002874024212,-5.652257919,-0.7934765816,-14.41522884,0,0
269,2023-05-12 12:47:02,-17.62669822,68.97533416,37.30280304,26.32057953,1003.665039,334.7639895,67.70685245,258.5267755,0.01903199963,0.0378200002,0.01585999876,0.0002089962363,-0.001008436084,0.0005923807621,-4.988884926,-0.2125799209,-13.94457912,0,0
270,2023-05-12 12:47:02,-17.62125915,68.97973472,36.76939392,25.51590157,1003.66626,334.6918166,67.72137343,258.6173233,0.02000799961,0.03489200026,0.01268799976,0.001125350595,-0.001008175313,-0.001240387559,-5.326167583,0.02676150762,-13.51235294,0,0
271,2023-05-12 12:47:02,-17.61672897,68.98339964,36.44935226,26.27162552,1003.662598,334.6265046,67.79985231,258.6042435,0.01927600056,0.0378200002,0.01585999876,-0.002234272659,-0.002229571342,0.002118967474,-5.524483204,-0.03381002694,-12.77801323,0,0
272,2023-05-12 12:47:02,-17.61232956,68.9869585,36.69827271,25.51896286,1003.656982,334.594746,67.78692276,258.4643339,0.01951999962,0.03537999839,0.01366399974,0.00234701857,-0.0007022023201,0.001202521846,-5.9150877,-0.4334738255,-13.7720871,0,0
273,2023-05-12 12:47:02,-17.60855497,68.99001172,36.52047348,26.73056602,1003.649902,334.5529076,67.89438895,258.3229285,0.01854399964,0.03537999839,0.01341999974,-9.67E-05,-0.0007018893957,-0.0003244802356,-5.98783493,-0.3811435699,-13.73520851,0,0
274,2023-05-12 12:47:02,-17.60477366,68.99307019,36.53825378,25.68112183,1003.642822,334.5553511,67.93259703,258.1758677,0.01878799871,0.03586800024,0.01244399976,-0.00467807427,0.001436270773,0.001813502982,-6.026948452,-0.6943098307,-13.93371296,0,0
275,2023-05-12 12:47:02,-17.60065922,68.99639788,36.71605682,26.21655273,1003.642822,334.5631939,67.99288028,258.065246,0.01903199963,0.03586800024,0.01781199872,-9.67E-05,-0.001312442124,-0.0006297212094,-6.010885715,-0.3972239196,-13.91572285,0,0
276,2023-05-12 12:47:02,-17.59689308,68.99944368,37.08943939,25.61686897,1003.646484,334.6005994,67.85311412,257.9807155,0.01951999962,0.03513599932,0.01805599965,-0.001318123192,-0.0003959909081,-0.00032415241,-5.791667938,-0.1338661611,-14.54527569,0,0
277,2023-05-12 12:47:02,-17.59278374,69.00276683,36.50269318,26.14924049,1003.63916,334.6464283,67.72009619,257.9692886,0.0173240006,0.03684400022,0.01293199975,-0.0007072016597,-0.001006625593,0.000897584483,-5.901663303,-0.3209037185,-13.77839279,0,0
278,2023-05-12 12:47:02,-17.58901239,69.00581646,36.78717804,26.58676338,1003.641357,334.7201056,67.78688178,257.8302943,0.01707999967,0.0361119993,0.01439599972,-0.001928541809,0.0002153217793,0.0008972324431,-6.189078808,-0.3399068415,-14.26245594,0,0
279,2023-05-12 12:47:03,-17.58457675,69.00940301,36.43157196,26.10334587,1003.641357,334.7473785,67.82303397,257.7048032,0.01878799871,0.03684400022,0.01390799973,-0.0004015490413,-0.001311458647,0.0005915220827,-5.320497036,-0.384866178,-14.32971668,0,0
280,2023-05-12 12:47:03,-17.5782135,69.01454774,37.21389771,26.41542625,1003.638916,334.6710136,67.91666903,257.8559895,0.01854399964,0.03586800024,0.0156159997,0.0008199550211,-0.001006022096,0.001202316955,-5.424151421,-0.5135792494,-14.42173672,0,0
281,2023-05-12 12:47:03,-17.57040455,69.02086058,36.76939392,26.51945305,1003.636475,334.6475211,67.81931834,258.0237389,0.01707999967,0.03684400022,0.01268799976,-0.0004016645253,0.001131750643,0.00150747411,-5.649389744,-0.6945127249,-14.46022224,0,0
282,2023-05-12 12:47:03,-17.56471553,69.02545915,37.32057953,26.36035347,1003.639404,334.6953598,67.82641491,258.0959818,0.01927600056,0.03586800024,0.01659199968,-0.001623079181,-8.99E-05,0.0005911029875,-5.509588242,-0.3332751691,-14.67838287,0,0
283,2023-05-12 12:47:03,-17.558467,69.03050949,36.34267426,26.02685547,1003.63501,334.6195532,67.74925426,258.2755065,0.01659199968,0.03562399745,0.01805599965,0.0002091862261,-0.0003952011466,-0.0003255195916,-5.568099976,-0.5643126965,-15.04895592,0,0
284,2023-05-12 12:47:03,-17.5525854,69.0352628,36.64493561,25.77596855,1003.638428,334.6685188,67.74128343,258.406489,0.01830000058,0.03757599741,0.01683599874,0.0005144700408,0.0002159029245,0.002117717639,-5.675789356,-0.8779534698,-14.83829021,0,0
285,2023-05-12 12:47:03,-17.54641351,69.04025023,37.26724243,26.34199524,1003.645996,334.6958345,67.71271275,258.5191325,0.01781199872,0.03660000116,0.01317599975,-0.001623421907,0.0008267462254,-0.001241983846,-5.426095963,-0.8763825893,-14.74986267,0,0
286,2023-05-12 12:47:03,-17.54069722,69.04486904,36.36045074,26.15841866,1003.644043,334.7127785,67.80509106,258.6315984,0.01854399964,0.03757599741,0.01366399974,0.00143096596,-0.001005716622,-0.001241797581,-5.377438545,-0.7518482804,-14.28292561,0,0
287,2023-05-12 12:47:04,-17.53441499,69.04994465,36.27155304,26.2502079,1003.642578,334.7093378,67.83993186,258.747896,0.01854399964,0.0361119993,0.01707999967,0.001431386918,-0.002226956189,0.002728242427,-5.46405077,-0.6878002882,-14.68085194,0,0
288,2023-05-12 12:47:04,-17.52871638,69.05454828,36.37823105,26.28998184,1003.64502,334.7105655,67.75352313,258.8932152,0.01781199872,0.03513599932,0.0153719997,-0.001011524349,-0.0003939792514,0.000895217061,-5.906613827,-0.4678712189,-14.95314884,0,0
289,2023-05-12 12:47:04,-17.52239578,69.0596539,36.39601135,25.59545135,1003.639648,334.7093002,67.81002929,258.8698491,0.01976399869,0.03586800024,0.01317599975,0.0002101622522,-8.82E-05,0.001200428233,-6.050754547,-0.5708979964,-14.80470943,0,0
290,2023-05-12 12:47:04,-17.51659884,69.06433605,37.39170074,26.17677689,1003.647949,334.6519983,67.89699809,258.8247698,0.01878799871,0.03830799833,0.01683599874,-9.54E-05,0.0002174153924,-2.11E-05,-6.135867119,-0.5232168436,-15.00439739,0,0
291,2023-05-12 12:47:04,-17.50875268,69.07067266,37.1072197,26.3022213,1003.64209,334.6720005,67.84759533,258.7789256,0.01830000058,0.03660000116,0.01415199973,0.0008212886751,-0.003142505884,-0.002158928663,-6.239826679,-0.4725524187,-14.69050503,0,0
292,2023-05-12 12:47:04,-17.5030465,69.07528049,36.39601135,26.25632668,1003.639404,334.6948048,67.84116812,258.6359356,0.01830000058,0.03733199835,0.01781199872,-0.001927059144,0.001133807003,0.0005899704993,-6.314109325,-0.4044654369,-15.00069427,0,0
293,2023-05-12 12:47:04,-17.49673934,69.08037314,36.30711365,26.24408722,1003.633789,334.7359977,67.92226296,258.4396496,0.01854399964,0.0361119993,0.01293199975,0.0005164332688,0.001439325511,0.001200664788,-5.861829758,-0.4668895602,-14.60630894,0,0
294,2023-05-12 12:47:04,-17.49102152,69.08498948,36.71605682,26.25632668,1003.632568,334.6838697,67.91182643,258.4445264,0.01927600056,0.03660000116,0.01317599975,-0.001010876149,0.002049736679,-0.0003264900297,-6.222423553,-0.7448328733,-14.20101643,0,0
295,2023-05-12 12:47:05,-17.4849861,69.08986178,37.33836365,26.47355843,1003.63501,334.6567316,67.9756887,258.286346,0.01830000058,0.03684400022,0.0153719997,-9.42E-05,0.0005224868655,-2.12E-05,-6.3310256,-0.7074015141,-14.03950882,0,0
296,2023-05-12 12:47:05,-17.47890524,69.09477027,36.71605682,25.23747826,1003.630127,334.6853057,67.91718813,258.1136515,0.01878799871,0.03660000116,0.01707999967,-0.002231698483,0.0002173483372,-2.13E-05,-6.096184254,-0.9520800114,-13.68849182,0,0
297,2023-05-12 12:47:05,-17.47317865,69.09939236,36.73383331,26.22267151,1003.638428,334.6865488,67.91199718,257.9896016,0.01805599965,0.03635599837,0.01366399974,0.0002115629613,0.0008283033967,-0.0006321333349,-5.79020977,-1.054520726,-13.72912502,0,0
298,2023-05-12 12:47:05,-17.46727402,69.10415771,37.03609848,26.13700104,1003.645996,334.7582487,67.92874481,257.940875,0.02025200054,0.03708799928,0.01341999974,-9.40E-05,-0.001309469342,-0.0003268197179,-5.90617609,-0.6628012657,-13.94421768,0,0
299,2023-05-12 12:47:05,-17.46138382,69.10891096,36.69827271,25.82186317,1003.645264,334.8044208,67.95631145,257.8681677,0.01805599965,0.03684400022,0.01512799971,-0.001621045172,0.0002175495028,0.00150552392,-6.086793423,-0.5900005102,-14.19598198,0,0
300,2023-05-12 12:47:11,-17.45516549,69.11392852,37.32057953,26.40012741,1003.644531,334.8596873,67.89473046,257.8133008,0.01878799871,0.0361119993,0.01683599874,-0.0007046088576,-0.001920096576,0.0002835951746,-5.736986637,-0.6986744404,-14.27052307,0,0
301,2023-05-12 12:47:11,-17.16704981,69.34586135,36.30711365,26.08804893,1003.662598,334.5037252,67.25528132,257.7503059,0.01830000058,0.03586800024,0.0153719997,0.0005172528327,-0.001614682376,0.002421146259,-5.902020454,-0.3220876753,-14.26176453,0,0
302,2023-05-12 12:47:11,-17.16323703,69.34892351,36.30711365,26.08804893,1003.662598,334.6158888,67.26028102,257.6684461,0.01878799871,0.03562399745,0.01366399974,-0.001620329916,-0.00100312382,-0.0006334539503,-5.637771606,0.07434338331,-14.22551823,0,0
303,2023-05-12 12:47:11,-17.15951788,69.3519103,36.71605682,26.66631317,1003.656738,334.6640775,67.24435985,257.6902344,0.01756799966,0.03537999839,0.01390799973,-0.000703945756,0.002050854266,-0.0006332658231,-5.43353796,-0.1989867538,-14.27083015,0,0
304,2023-05-12 12:47:11,-17.15574227,69.35494226,36.41379166,25.19770432,1003.656006,334.7194601,67.28536148,257.7572044,0.0173240006,0.03733199835,0.01488399971,-0.004368897527,-0.001919537783,0.0008939318359,-5.672797203,-0.03691820428,-14.53124714,0,0
305,2023-05-12 12:47:11,-17.15196249,69.35797737,36.92941666,25.91976929,1003.654053,334.7695459,67.39237688,257.7598545,0.01854399964,0.03537999839,0.01317599975,0.001128923148,-0.00100274384,0.0008937101811,-5.724858284,-0.0390396677,-14.06932735,0,0
306,2023-05-12 12:47:11,-17.14783656,69.36129024,36.52047348,26.25632668,1003.656738,334.7280593,67.42130956,257.7670536,0.01805599965,0.03586800024,0.01268799976,-0.002535514534,-0.001307815313,-0.0003282167017,-5.517868996,-0.5463973284,-14.07645798,0,0
307,2023-05-12 12:47:11,-17.14406175,69.36432099,36.32489014,27.27823448,1003.65332,334.7293673,67.50895455,257.8101725,0.0173240006,0.03684400022,0.01610399969,-0.001313570887,-0.001002348959,0.001809561625,-5.807363033,-0.7640865445,-13.87422657,0,0
308,2023-05-12 12:47:12,-17.1399484,69.36762334,36.80495453,26.1737175,1003.652588,334.8336404,67.48427708,257.7739384,0.01903199963,0.03586800024,0.01488399971,0.0008241795003,0.0005249902606,0.0005876068026,-5.957103729,-0.5058019161,-13.90104198,0,0
309,2023-05-12 12:47:12,-17.13617288,69.37065429,36.36045074,25.34456444,1003.652344,334.8033007,67.47247451,257.7481886,0.01903199963,0.03733199835,0.01415199973,-0.0007031559944,0.001135803759,0.0008929725736,-5.742150307,-0.5067151189,-14.18581581,0,0
310,2023-05-12 12:47:12,-17.13217001,69.37386755,36.41379166,26.46132088,1003.647461,334.81664,67.56955882,257.7283605,0.01830000058,0.03660000116,0.01366399974,-0.001313399523,-0.002834461629,-0.002772182226,-5.497324467,-0.5646384954,-14.00128174,0,0
311,2023-05-12 12:47:12,-17.12759206,69.3775422,36.41379166,26.21349335,1003.649658,334.8014087,67.70742619,257.7793206,0.01805599965,0.03733199835,0.01659199968,-0.001007393003,-0.003139533103,-2.35E-05,-5.707650661,-0.7423943281,-14.27941132,0,0
312,2023-05-12 12:47:12,-17.12377853,69.38060306,36.71605682,26.46438026,1003.646973,334.7734852,67.74266313,257.8680447,0.01805599965,0.03660000116,0.01488399971,-0.001007027924,0.0002205446362,0.002419548109,-5.292281628,-0.254108876,-14.42517757,0,0
313,2023-05-12 12:47:12,-17.11804909,69.38520135,36.41379166,25.54343796,1003.646484,334.8333142,67.72253456,257.9928664,0.01781199872,0.03660000116,0.01610399969,-0.001923348755,-8.49E-05,0.001808306202,-5.532321453,-0.5947440267,-14.58077335,0,0
314,2023-05-12 12:47:12,-17.11224614,69.38985821,37.40948486,26.55004883,1003.650635,334.8186976,67.72963113,258.1410611,0.01878799871,0.03708799928,0.0156159997,-0.0007013827562,-0.000695772469,-0.0009406823665,-5.203917503,-0.6386930943,-14.56671715,0,0
315,2023-05-12 12:47:12,-17.10595236,69.39490848,36.53825378,25.23747826,1003.653809,334.8245238,67.61353841,258.3750975,0.01805599965,0.03562399745,0.01463999972,0.001436468214,-0.002222433686,-2.47E-05,-5.320805073,-0.6044470668,-14.43130779,0,0
316,2023-05-12 12:47:12,-17.10010946,69.3995965,37.03609848,26.3542347,1003.653809,334.7238297,67.64592033,258.5610426,0.01781199872,0.0361119993,0.01659199968,-0.003449548036,-0.002527505159,-0.0009409748018,-5.501258373,-0.6492232084,-14.49029255,0,0
317,2023-05-12 12:47:12,-17.09418572,69.40434894,37.35614014,27.70046043,1003.650879,334.7252743,67.59666784,258.6462765,0.01707999967,0.03586800024,0.01195599977,-0.001616537571,-0.0009998232126,0.001197010279,-5.362407684,-0.7625570893,-13.77430248,0,0
318,2023-05-12 12:47:13,-17.08816116,69.40918182,37.05387878,26.29610062,1003.650146,334.7495693,67.78898547,258.6288049,0.02000799961,0.0361119993,0.01415199973,0.002353753895,-0.0006946474314,0.0002810023725,-5.300692558,-0.6004055142,-13.64242458,0,0
319,2023-05-12 12:47:13,-17.08227768,69.41390108,36.39601135,28.38275337,1003.646973,334.6862193,67.80364989,258.700153,0.01854399964,0.03635599837,0.01317599975,0.0002159364522,-0.001305386424,0.001502536237,-5.332422256,-0.5703738332,-14.1072731,0,0
320,2023-05-12 12:47:13,-17.07635456,69.4186517,37.35614014,26.29916,1003.647217,334.6952932,67.82569091,258.7670411,0.01854399964,0.03635599837,0.01439599972,0.002048354596,-0.0006942600012,-2.46E-05,-5.541157246,-0.6819767356,-13.9570694,0,0
321,2023-05-12 12:47:13,-17.0685757,69.42489003,36.30711365,26.00238037,1003.652832,334.7087452,67.84649567,258.7525064,0.01854399964,0.03586800024,0.01659199968,0.0008268579841,-0.00191578269,0.000280616805,-5.507852554,-0.7846765518,-14.20932579,0,0
322,2023-05-12 12:47:13,-17.06267371,69.42962268,36.44935226,25.38739777,1003.647461,334.7522416,67.88475839,258.7582643,0.01878799871,0.03562399745,0.01488399971,0.0005212463439,-0.0009996816516,-0.0006357990205,-5.067728519,-0.6546980143,-14.20620537,0,0
323,2023-05-12 12:47:13,-17.05685957,69.43428446,37.21389771,26.84377098,1003.655762,334.7419195,67.963087,258.8141147,0.01854399964,0.03757599741,0.01585999876,-0.0006998851895,-0.000999443233,-0.001857547089,-5.205867767,-0.5101184845,-14.46587276,0,0
324,2023-05-12 12:47:13,-17.05080912,69.43913526,36.64493561,26.3022213,1003.653809,334.8002834,67.98779179,258.921096,0.01805599965,0.0361119993,0.0153719997,-0.001921385527,-0.001610204577,0.0008911732584,-5.436885834,-0.7201368213,-14.81270123,0,0
325,2023-05-12 12:47:13,-17.04494426,69.44383683,36.43157196,26.18901443,1003.650146,334.7389244,67.92922975,259.0540046,0.01830000058,0.03684400022,0.01366399974,-0.003448314965,0.0002225413918,0.0002803672105,-5.487942219,-0.4610278308,-14.77673626,0,0
326,2023-05-12 12:47:14,-17.03925949,69.44839361,36.75161743,26.64795685,1003.64502,334.7226037,67.8284708,259.1597496,0.01927600056,0.03660000116,0.0153719997,-0.003753181547,0.0008333846927,0.0002802982926,-5.418539047,-0.5271124244,-14.35640335,0,0
327,2023-05-12 12:47:14,-17.03340435,69.45308654,36.85829926,26.2502079,1003.651367,334.6901637,67.92660696,259.2128885,0.01805599965,0.03635599837,0.01341999974,-8.78E-05,0.001749627292,0.001196477562,-5.380852699,-0.1539658755,-14.26610279,0,0
328,2023-05-12 12:47:14,-17.02757582,69.45775771,36.75161743,28.00030136,1003.651367,334.7281959,67.89169786,259.2072399,0.01781199872,0.0361119993,0.01610399969,0.001439027488,-0.000388301909,-0.001246821135,-5.642122746,-0.236610651,-14.63657284,0,0
329,2023-05-12 12:47:14,-17.02130676,69.46278146,36.64493561,26.14312172,1003.655029,334.7535666,67.91373888,259.1496136,0.01830000058,0.03635599837,0.01634800062,-0.0003934837878,0.0002224892378,-0.0006362050772,-5.806669235,-0.1726782173,-14.90826511,0,0
330,2023-05-12 12:47:14,-17.01547157,69.46745708,36.78717804,25.94424629,1003.645752,334.7184407,67.88446469,259.1102376,0.01878799871,0.03757599741,0.01341999974,0.001744519919,-0.001915335655,-0.0006361715496,-5.946229458,-0.2991086841,-14.60729599,0,0
331,2023-05-12 12:47:14,-17.00764312,69.47372919,37.1072197,25.24359703,1003.647705,334.7894132,68.07491085,258.9217449,0.01683599874,0.03586800024,0.0153719997,0.002660643309,-0.0003880113363,-0.0006359834224,-5.843613625,-0.4416809678,-14.50484753,0,0
332,2023-05-12 12:47:14,-17.0019404,69.47829771,36.75161743,25.7637291,1003.642822,334.7743697,68.08229429,258.8349946,0.01854399964,0.03635599837,0.01268799976,0.002049297094,0.0005282312632,0.001196416095,-5.719308853,-0.3093606532,-14.28235817,0,0
333,2023-05-12 12:47:14,-16.99583533,69.48318808,36.46713257,25.15486908,1003.643311,334.7441615,68.17961765,258.7805375,0.01805599965,0.0361119993,0.01390799973,0.0008273907006,-0.001304164529,-2.53E-05,-5.883215904,-0.4022960961,-14.76007271,0,0
334,2023-05-12 12:47:15,-16.98977469,69.48804241,36.5915947,26.1981945,1003.647461,334.7214835,68.18995856,258.749023,0.01781199872,0.03635599837,0.01585999876,-0.0003943070769,-0.000387661159,-0.0006360597908,-5.911793709,-0.0225117635,-15.29472065,0,0
335,2023-05-12 12:47:15,-16.98404816,69.49262871,37.1427803,25.83104134,1003.645264,334.7856258,68.20025849,258.6739866,0.01854399964,0.03733199835,0.01512799971,0.001438420266,-0.0006927847862,-0.001246891916,-5.764450073,-0.06148429587,-15.05974293,0,0
336,2023-05-12 12:47:15,-16.97780081,69.49763166,36.37823105,26.27468491,1003.652588,334.8408701,68.19174807,258.6319331,0.01903199963,0.0361119993,0.01415199973,0.0005218423903,-0.001303367317,0.00058558397,-5.560049057,0.06510790437,-14.77784061,0,0
337,2023-05-12 12:47:15,-16.97191656,69.50234338,37.28501892,26.03603554,1003.647461,334.8796946,68.14405286,258.6217151,0.01805599965,0.03660000116,0.0153719997,-0.001921255141,-8.13E-05,0.001501532272,-5.60765028,-0.1737109125,-14.62018108,0,0
338,2023-05-12 12:47:15,-16.96621515,69.50690829,36.25376892,26.15229988,1003.651123,334.8319004,68.01530379,258.6738158,0.01903199963,0.03757599741,0.01390799973,-0.0003941878676,-0.0009974762797,-0.001857988536,-5.477798462,-0.1636939943,-14.18097782,0,0
339,2023-05-12 12:47:15,-16.9599294,69.51194058,36.66271591,26.14006233,1003.659912,334.8014907,68.1164384,258.6548279,0.01781199872,0.03562399745,0.01439599972,0.003881640732,0.001445762813,-0.0009413994849,-5.517748833,-0.305793941,-14.52095318,0,0
340,2023-05-12 12:47:15,-16.95412965,69.51658336,36.91163635,26.41236687,1003.657715,334.8617722,67.96816866,258.7048454,0.01830000058,0.03586800024,0.0156159997,-0.0007000751793,-0.0003866329789,0.0002803876996,-5.585577965,-0.5622322559,-14.47871017,0,0
341,2023-05-12 12:47:15,-16.94671136,69.52252118,37.35614014,25.55567741,1003.658936,334.8518497,67.8916842,258.7577247,0.01878799871,0.03708799928,0.01366399974,-0.001310881227,-0.001302599907,0.0005857273936,-5.535079956,-0.7462697029,-14.72084999,0,0
342,2023-05-12 12:47:16,-16.94076459,69.52728067,37.32057953,24.39914703,1003.657227,334.8846038,67.89192326,258.8249474,0.0173240006,0.03757599741,0.01610399969,0.0008268915117,-0.0006917342544,0.0008911173791,-5.406126976,-0.5291728377,-14.79559517,0,0
343,2023-05-12 12:47:16,-16.9350833,69.53182726,36.34267426,26.11558533,1003.664307,334.8920556,67.84983563,258.9296201,0.01683599874,0.03733199835,0.01439599972,0.001437611878,-0.00130264461,-0.00246873498,-5.542797089,-0.429312557,-14.54252625,0,0
344,2023-05-12 12:47:16,-16.92880266,69.53685302,36.64493561,24.44198036,1003.655518,334.8709144,67.91154639,258.9365869,0.01903199963,0.03562399745,0.01512799971,-8.98E-05,0.0008354708552,0.002723395824,-5.528502464,-0.4502762854,-14.10304737,0,0
345,2023-05-12 12:47:16,-16.9230634,69.54144515,36.27155304,26.85906982,1003.653809,334.8548481,67.97251949,258.9144707,0.01854399964,0.0361119993,0.01293199975,0.0005210377276,-0.000386312604,0.001196341589,-5.413220882,-0.243984133,-14.27945995,0,0
346,2023-05-12 12:47:16,-16.91673323,69.54650961,36.76939392,26.31139946,1003.649902,334.8649534,67.91957186,258.9356921,0.01707999967,0.03513599932,0.01439599972,0.0002159960568,0.001446411014,0.0002801790833,-5.532032013,-0.3033358753,-14.01512146,0,0
347,2023-05-12 12:47:16,-16.91081602,69.55124321,36.73383331,26.43990326,1003.648438,334.8871122,67.85339416,258.9422013,0.01634800062,0.03635599837,0.01781199872,0.0008270144463,-0.0006914660335,-0.001247283071,-5.458293438,-0.4096867442,-14.47690678,0,0
348,2023-05-12 12:47:16,-16.9047127,69.55612526,37.39170074,26.79481697,1003.643799,334.9573453,67.81606717,258.9364024,0.01903199963,0.03733199835,0.01634800062,0.002048697323,-0.0009966641665,-0.0003306437284,-5.645343304,-0.2236956656,-14.97997665,1,0
349,2023-05-12 12:47:16,-16.8989619,69.56072489,36.64493561,26.42460442,1003.632568,334.9912726,67.67239415,258.9572072,0.01830000058,0.03733199835,0.01415199973,-8.92E-05,-0.001607038081,0.0002799443901,-5.309693813,-0.4634504318,-14.73860645,1,0
350,2023-05-12 12:47:17,-16.8925652,69.56584066,37.32057953,24.97741127,1003.630615,334.9888308,67.78371257,259.0156736,0.01634800062,0.0361119993,0.01268799976,0.001132428646,-0.0006906911731,0.000585205853,-5.124650002,-0.618037641,-14.4408741,0,0
351,2023-05-12 12:47:17,-16.88509229,69.57181647,36.80495453,26.56840706,1003.635254,335.0400521,67.89623994,259.0865505,0.01878799871,0.03489200026,0.01512799971,-0.002226993442,0.002058260143,-0.002469111234,-5.307757854,-0.417981714,-14.61805439,0,0
352,2023-05-12 12:47:17,-16.87896067,69.57671919,36.73383331,26.35729408,1003.63501,335.0511443,67.79093208,259.2034423,0.01951999962,0.03562399745,0.01195599977,-0.0006997212768,0.0005311369896,0.0002798140049,-5.298502445,-0.1395286024,-14.75324917,0,0
353,2023-05-12 12:47:17,-16.87324136,69.58129181,36.30711365,25.37210083,1003.625,335.0036899,67.88831692,259.2354008,0.01830000058,0.03489200026,0.01512799971,-0.001005019993,-0.0003848001361,-2.55E-05,-5.334980965,-0.2900154591,-14.66483402,0,0
354,2023-05-12 12:47:17,-16.86694597,69.58632455,36.43157196,26.17677689,1003.623291,334.9713472,68.01201847,259.207158,0.01805599965,0.03708799928,0.01415199973,-0.000699352473,-7.96E-05,0.001501126215,-5.81488657,-0.3867872953,-14.76310349,0,0
355,2023-05-12 12:47:17,-16.86106873,69.59102256,37.32057953,27.5046463,1003.617676,334.9641465,68.00970304,259.1382618,0.02000799961,0.03562399745,0.01634800062,-0.0006994754076,-0.001301072538,-2.60E-05,-5.360762596,-0.6626566052,-15.05377483,0,0
356,2023-05-12 12:47:17,-16.85536273,69.59558328,36.32489014,26.07580948,1003.618652,334.9159681,68.04887417,259.2512946,0.01830000058,0.03635599837,0.01415199973,-0.0003936290741,-0.00130096823,0.001195274293,-5.426535606,-0.6042290926,-14.79628754,0,0
357,2023-05-12 12:47:17,-16.84909461,69.60059282,37.37392426,25.72089577,1003.626221,334.9217276,67.91701737,259.3719704,0.01781199872,0.03733199835,0.01512799971,-0.001309689134,-0.001300893724,0.0002789832652,-5.37296772,-0.1858793497,-14.58453655,0,0
358,2023-05-12 12:47:18,-16.84336641,69.60517044,36.46713257,26.29916,1003.625244,334.9901046,67.87536688,259.3775165,0.01878799871,0.03562399745,0.01707999967,-0.0006982535124,-0.0006897971034,0.0005842950195,-5.416427135,-0.3124852479,-14.69559765,0,0
359,2023-05-12 12:47:18,-16.83708131,69.61019262,36.71605682,25.60769081,1003.631348,334.9542274,67.73659792,259.4679551,0.01976399869,0.03562399745,0.01488399971,-8.75E-05,-0.0003837943077,-2.66E-05,-5.25599575,-0.3573327065,-14.67875195,0,0
360,2023-05-12 12:47:23,-16.8312563,69.61484673,36.71605682,26.25938606,1003.630615,334.958988,67.7883571,259.5039707,0.01854399964,0.03537999839,0.01756799966,-0.001614667475,-0.001910418272,-0.0003323163837,-4.920005798,-0.5223386884,-14.70204067,0,0
361,2023-05-12 12:47:24,-16.54567101,69.84251576,36.75161743,26.1981945,1003.651611,335.0792215,68.54475957,259.7194768,0.01781199872,0.03562399745,0.01463999972,0.0002175234258,-0.001604676247,-0.0003322567791,-5.054150581,-0.5076720715,-14.64349842,0,0
362,2023-05-12 12:47:24,-16.54170695,69.84566893,37.32057953,26.06051254,1003.646729,335.046049,68.4212356,259.8768375,0.01707999967,0.03879600018,0.01585999876,0.001744691283,-0.0003824904561,0.0002786144614,-5.374659538,-0.04482187703,-14.55991459,0,0
363,2023-05-12 12:47:24,-16.5379224,69.84867915,36.36045074,26.14006233,1003.647217,335.0901857,68.40915982,259.8202153,0.01830000058,0.03757599741,0.01976399869,0.0002174861729,-0.001298606396,0.001194691285,-5.177169323,-0.4727138877,-14.64684582,0,0
364,2023-05-12 12:47:24,-16.53414052,69.85168706,36.71605682,25.75761032,1003.651367,335.1022154,68.24298132,259.8873424,0.01683599874,0.03708799928,0.01585999876,0.001439243555,-7.69E-05,0.0008890870959,-5.028325081,-0.7424277067,-14.06618309,0,0
365,2023-05-12 12:47:24,-16.53017827,69.85483825,36.28932953,26.26244545,1003.648926,335.1377528,68.29551913,259.9130512,0.01830000058,0.03733199835,0.01463999972,-8.81E-05,0.0002285242081,-0.0006378088146,-5.320162773,-0.8118211627,-14.11081314,0,0
366,2023-05-12 12:47:24,-16.52586684,69.85826692,36.6271553,26.49497604,1003.653809,335.1457442,68.2126826,259.9405085,0.01781199872,0.03635599837,0.01512799971,-0.0006992593408,0.0002284944057,-0.001554019749,-5.024641991,-0.7990352511,-13.94279099,0,0
367,2023-05-12 12:47:24,-16.52208166,69.86127691,37.24945831,26.22267151,1003.652832,335.111764,68.25734521,259.9910178,0.01781199872,0.03562399745,0.0153719997,0.0005227513611,0.0008394420147,-0.0003323312849,-4.855906487,-0.6330826283,-14.26642704,0,0
368,2023-05-12 12:47:24,-16.51811919,69.86442771,36.30711365,26.10640717,1003.647461,335.136952,68.1863932,260.118756,0.01903199963,0.03708799928,0.01512799971,-0.0006988681853,-7.68E-05,0.001194762066,-4.939842224,-0.5175536275,-14.54741383,0,0
369,2023-05-12 12:47:24,-16.51381018,69.86785383,36.68049622,26.10640717,1003.636475,335.1643735,68.05340942,260.2373281,0.01903199963,0.03733199835,0.01683599874,0.0005225017667,0.0002287998796,-0.0006376691163,-4.907942772,-0.4290329218,-14.3375988,0,0
370,2023-05-12 12:47:24,-16.50998314,69.87089655,36.52047348,26.59900284,1003.638428,335.1671056,67.95154398,260.3149259,0.01781199872,0.03586800024,0.0156159997,-8.81E-05,0.001756295562,-2.67E-05,-5.33546114,-0.8439249992,-14.43479824,0,0
371,2023-05-12 12:47:24,-16.50549725,69.87446287,36.30711365,26.46438026,1003.64209,335.151152,67.92231077,260.3176443,0.01805599965,0.03660000116,0.01781199872,-0.001615028828,-7.63E-05,-0.0009429827332,-5.431056023,-0.5469253659,-14.60613155,0,0
372,2023-05-12 12:47:24,-16.50171821,69.87746705,37.35614014,26.29304123,1003.649658,335.2761222,67.73775223,260.2677976,0.01707999967,0.03586800024,0.01512799971,0.0008286386728,-7.66E-05,-2.65E-05,-6.219103336,-0.6076509953,-14.47641277,0,0
373,2023-05-12 12:47:25,-16.49628134,69.88178884,36.6271553,26.19513512,1003.643799,335.2507754,67.62883803,260.1548399,0.01903199963,0.03586800024,0.01488399971,-0.001919683069,-0.0006873160601,0.0008898358792,-5.678029537,-1.056996107,-14.67507839,0,0
374,2023-05-12 12:47:25,-16.49015717,69.88665654,37.21389771,24.91316032,1003.638672,335.2230858,67.62052569,260.0741412,0.0173240006,0.03757599741,0.0156159997,0.001134749502,-0.002519607544,-0.0009428523481,-5.39636898,-0.7080249786,-14.43439674,0,0
375,2023-05-12 12:47:25,-16.48389703,69.89163184,36.64493561,26.33587646,1003.631348,335.2773619,67.56134893,260.0011675,0.01903199963,0.03733199835,0.01439599972,0.00235638395,-7.61E-05,-0.0009429436177,-5.41718626,-0.6843469143,-14.09093571,0,0
376,2023-05-12 12:47:25,-16.47817173,69.89618167,36.75161743,24.6133194,1003.634766,335.276573,67.53734765,259.9710805,0.0173240006,0.03660000116,0.01683599874,0.001440219581,-0.001297824085,0.001500397921,-5.195903301,-0.4903478324,-14.74209404,0,0
377,2023-05-12 12:47:25,-16.47183808,69.90121449,36.57381439,26.69384956,1003.633301,335.2219537,67.59072557,260.0407826,0.01756799966,0.03635599837,0.01707999967,-0.002224944532,-0.000992231071,-0.000637544319,-5.140271187,-0.7749814391,-14.67148304,0,0
378,2023-05-12 12:47:25,-16.46609986,69.90577374,36.48491287,26.46438026,1003.625977,335.2479272,67.52607783,260.1384543,0.01854399964,0.03562399745,0.01585999876,-0.0006974898279,-0.0009919479489,0.001194829121,-5.363821507,-0.8159238696,-14.70453453,0,0
379,2023-05-12 12:47:25,-16.45975754,69.91081253,37.32057953,25.90141296,1003.616943,335.1757816,67.51505391,260.2291865,0.01830000058,0.03586800024,0.01439599972,0.0005240365863,0.001451544464,-0.002164788544,-5.386389732,-0.5091584921,-14.71631336,0,0
380,2023-05-12 12:47:25,-16.45378799,69.91555473,37.125,26.61124039,1003.616943,335.1876081,67.48027458,260.254827,0.01927600056,0.03635599837,0.01585999876,0.0005239881575,-0.001296959817,0.002416504547,-5.235341072,-0.580252707,-14.84715462,0,0
381,2023-05-12 12:47:26,-16.44565702,69.92201326,36.73383331,26.17983627,1003.621094,335.1276971,67.40100341,260.311702,0.01707999967,0.03708799928,0.01512799971,-0.001003216952,0.002062939107,0.001194577664,-5.949602604,-0.5487864017,-15.00044155,0,0
382,2023-05-12 12:47:26,-16.43990485,69.9265818,36.44935226,26.09110832,1003.614502,335.1135791,67.43607643,260.1484605,0.01903199963,0.03660000116,0.01366399974,0.0008294545114,-0.0006857514381,-0.0009436458349,-5.573023319,-0.7209725976,-14.76009369,0,0
383,2023-05-12 12:47:26,-16.43381426,69.9314187,36.53825378,26.29916,1003.620361,335.0574025,67.42826269,260.1594298,0.01854399964,0.03635599837,0.01488399971,-0.001003004611,0.0005359351635,0.0008888561279,-5.053864956,-0.8944275975,-15.02751064,0,0
384,2023-05-12 12:47:26,-16.42806495,69.93598416,36.34267426,27.21704292,1003.624756,334.9982257,67.53937621,260.3039019,0.01830000058,0.03660000116,0.01463999972,-0.003751456738,0.001452162862,0.0002776905894,-5.079454422,-0.7274065614,-15.10650349,0,0
385,2023-05-12 12:47:26,-16.42195023,69.94083935,36.37823105,26.07886887,1003.626465,335.0307204,67.43780447,260.4476979,0.01830000058,0.03660000116,0.01439599972,-0.001307655126,0.001452066004,0.001804709435,-5.050569057,-0.3843144774,-15.31193829,0,0
386,2023-05-12 12:47:26,-16.41621434,69.94539333,36.37823105,27.91769218,1003.627441,334.9841999,67.4397579,260.5772529,0.01781199872,0.03684400022,0.01610399969,-0.002834457904,0.0002305954695,-0.000333128497,-5.024476528,-0.3705259562,-15.03981113,0,0
387,2023-05-12 12:47:26,-16.4098723,69.95042812,36.44935226,26.21961212,1003.625488,334.9732529,67.35636812,260.7066167,0.01781199872,0.03660000116,0.01439599972,0.001136191189,0.001452282071,0.0002776924521,-5.243430138,-0.3766909838,-15.19513702,0,0
388,2023-05-12 12:47:26,-16.40415355,69.95496767,36.73383331,25.70865631,1003.626709,334.9590051,67.4899393,260.6989054,0.01781199872,0.03708799928,0.01585999876,0.0005254819989,-0.001602016389,-0.000638673082,-5.335659027,-0.5272780061,-15.33294678,0,0
389,2023-05-12 12:47:27,-16.39781672,69.95999741,36.80495453,26.23796844,1003.636475,334.9837457,67.42821488,260.7532464,0.01683599874,0.0361119993,0.01366399974,0.00266328454,0.0011465922,-0.000333128497,-5.251778126,-0.5682764649,-15.09100819,0,0
390,2023-05-12 12:47:27,-16.39196229,69.96464383,36.68049622,26.24102783,1003.641602,335.0492916,67.45619134,260.7558829,0.0173240006,0.03660000116,0.01610399969,-0.001612436026,-0.000380307436,-0.0009439587593,-5.451580524,-0.3383281827,-14.92548943,0,0
391,2023-05-12 12:47:27,-16.38412848,69.97086055,36.69827271,26.44602203,1003.639648,335.1159355,67.41279232,260.6895754,0.01781199872,0.03708799928,0.01512799971,-0.001001618803,-0.002212576568,-0.0003330335021,-5.187636852,-0.2483651042,-14.99941444,0,0
392,2023-05-12 12:47:27,-16.37820426,69.97556138,36.44935226,26.12476349,1003.63623,335.081315,67.43341266,260.7129551,0.01854399964,0.03562399745,0.01293199975,0.0008311830461,-0.002212442458,-0.0003331787884,-5.091607094,-0.01111434214,-15.11786461,0,0
393,2023-05-12 12:47:27,-16.37205992,69.98043644,36.64493561,26.4307251,1003.645264,335.0733544,67.42461537,260.7509788,0.01830000058,0.03562399745,0.01683599874,0.0002203248441,-0.0003796741366,0.002720873803,-5.081620216,-0.3062338531,-15.08815384,0,0
394,2023-05-12 12:47:27,-16.36612337,69.9851462,36.75161743,26.38788986,1003.640625,335.0985834,67.35918899,260.798674,0.01634800062,0.03660000116,0.01610399969,0.0008309856057,-0.0006848797202,0.0005825962871,-5.398628712,-0.3621400595,-14.44385052,0,0
395,2023-05-12 12:47:27,-16.36021199,69.98983559,36.69827271,26.88354492,1003.640137,335.1209916,67.3879236,260.7224764,0.01830000058,0.03684400022,0.01390799973,0.0002204850316,-0.0006846189499,0.001193290576,-5.096291065,-0.5730626583,-14.63325405,0,0
396,2023-05-12 12:47:27,-16.35414648,69.99464681,36.73383331,26.20431328,1003.648193,335.1225796,67.38453582,260.7729515,0.01781199872,0.0361119993,0.01756799966,0.001442056149,0.00023175776,-0.001250008121,-5.316884518,-0.2527883351,-14.94600964,0,0
397,2023-05-12 12:47:28,-16.34840861,69.99919773,37.00053787,26.63877678,1003.650146,335.2200054,67.26820404,260.7369632,0.01927600056,0.03660000116,0.01659199968,0.0002207159996,0.002369575202,-0.0006391573697,-5.546878338,-0.01399206091,-15.3136692,0,0
398,2023-05-12 12:47:28,-16.34209648,70.00420368,36.94719696,26.02991486,1003.657471,335.1493198,67.19848147,260.6951557,0.01878799871,0.03562399745,0.01268799976,0.0002207942307,0.000536903739,0.00149849616,-5.749219418,-0.407527864,-15.462183,0,0
399,2023-05-12 12:47:28,-16.33616943,70.00890381,36.52047348,25.96566391,1003.653809,335.0680952,67.34283752,260.6128929,0.02000799961,0.03708799928,0.01122399978,0.000220797956,0.001758508384,0.001192815602,-5.375885963,-0.4970732629,-15.59545708,0,0
400,2023-05-12 12:47:28,-16.32992579,70.01385453,36.91163635,26.23490906,1003.652588,335.0028464,67.51284776,260.5804016,0.01927600056,0.03562399745,0.0153719997,-0.002222742885,-0.0003794431686,0.0002761930227,-5.577353954,-0.5751107335,-15.24310112,0,0
401,2023-05-12 12:47:28,-16.32204733,70.02010088,36.69827271,26.34811401,1003.649902,334.9482151,67.46834224,260.5714063,0.01951999962,0.03660000116,0.01707999967,-0.001611541957,0.000536672771,-0.0003346353769,-5.309352875,-0.381424576,-15.07116508,0,0
402,2023-05-12 12:47:28,-16.31612504,70.02479582,37.1427803,25.99932098,1003.65332,335.0334917,67.52397413,260.5507245,0.0173240006,0.03537999839,0.01781199872,-0.000389162451,0.0002312362194,-2.92E-05,-5.118035793,-0.3556981683,-15.412673,0,0
403,2023-05-12 12:47:28,-16.3099908,70.02965835,37.30280304,26.30528069,1003.647461,335.0186924,67.39382488,260.7200175,0.01854399964,0.03635599837,0.01439599972,-0.001610942185,-0.002517566085,-0.0003345888108,-4.905528069,-0.6130434871,-15.47106457,0,0
404,2023-05-12 12:47:28,-16.30406174,70.03435781,36.46713257,26.47355843,1003.645996,335.0262415,67.53678757,260.8254757,0.0173240006,0.03708799928,0.01512799971,-0.0006942786276,-0.0003790482879,-0.0006400384009,-4.960373878,-0.5301070213,-15.19258976,0,0
405,2023-05-12 12:47:29,-16.29771898,70.03938472,36.64493561,25.82798195,1003.654785,335.0450091,67.52949293,260.9362887,0.01756799966,0.0378200002,0.01683599874,-0.0003886371851,0.0008425712585,0.002413965762,-5.289418697,-0.1442780346,-15.24106789,0,0
406,2023-05-12 12:47:29,-16.29157186,70.04425611,36.52047348,26.30834007,1003.646729,335.0024058,67.529329,260.9685408,0.01707999967,0.03660000116,0.01293199975,-0.002220924944,-0.0009897425771,0.000886734575,-5.200471878,-0.2848084271,-15.33261299,0,0
407,2023-05-12 12:47:29,-16.28544232,70.04911314,36.16487122,26.58676338,1003.645508,334.9748255,67.59834123,260.9902062,0.01830000058,0.03586800024,0.01390799973,-8.27E-05,-0.0009892359376,0.0008864365518,-4.997589588,-0.3923012912,-15.54698944,0,0
408,2023-05-12 12:47:29,-16.27952064,70.05380503,36.76939392,26.31139946,1003.652588,334.9614674,67.59531546,261.1207652,0.01830000058,0.03684400022,0.01488399971,-8.25E-05,-0.001294843853,-2.99E-05,-4.963589668,-0.6199833155,-15.64107132,0,0
409,2023-05-12 12:47:29,-16.27342381,70.05863527,36.34267426,26.21961212,1003.653564,334.9714172,67.65844007,261.2367077,0.01927600056,0.03562399745,0.0156159997,-8.24E-05,-0.0003783926368,-0.0003351978958,-5.108672142,-0.3948193192,-15.51778984,0,0
410,2023-05-12 12:47:29,-16.26760213,70.06324711,36.32489014,26.27774429,1003.65625,334.9727286,67.47908613,261.3832289,0.01805599965,0.03708799928,0.01390799973,-0.001914922148,0.000843539834,0.000275446102,-4.883256435,-0.546634078,-15.40134716,0,0
411,2023-05-12 12:47:29,-16.25971139,70.06949738,36.32489014,26.34199524,1003.654297,334.9476448,67.46035092,261.5134123,0.01805599965,0.03757599741,0.01341999974,-0.001609101892,-0.0003782957792,0.001496979967,-4.935276985,-0.530038476,-15.20132637,1,0
412,2023-05-12 12:47:29,-16.25373759,70.07422876,36.41379166,26.75810242,1003.661133,334.9019884,67.42434217,261.64628,0.01707999967,0.03708799928,0.0153719997,-0.0003872103989,0.0008433014154,-0.00125169754,-4.859456539,-0.7208533883,-15.15016556,0,0
413,2023-05-12 12:47:30,-16.24760886,70.07908241,37.07165909,26.27468491,1003.650635,334.9795417,67.48004919,261.6839758,0.01830000058,0.03660000116,0.01585999876,0.002666883171,0.002064853907,-0.000641208142,-4.792003632,-0.6693163514,-15.24396801,0,0
414,2023-05-12 12:47:30,-16.24188669,70.08361368,36.68049622,26.49803543,1003.646729,334.9613922,67.47788402,261.8285572,0.01903199963,0.03635599837,0.01366399974,0.000834107399,-0.001600295305,0.0008858349174,-4.956307888,-0.3472507,-15.33561325,0,0
415,2023-05-12 12:47:30,-16.23553619,70.08864207,37.23168182,26.71832657,1003.635986,334.9348945,67.56296768,261.862114,0.01805599965,0.03635599837,0.01659199968,0.001750025898,0.0002323240042,-3.05E-05,-4.828046322,-0.3924516737,-15.48241997,0,0
416,2023-05-12 12:47:30,-16.22980979,70.09317587,36.609375,25.95036697,1003.636475,334.963472,67.49553323,261.9523681,0.01854399964,0.03635599837,0.01366399974,-0.001914598048,0.0002325326204,0.0002748873085,-4.815308094,-0.3829033971,-14.90706253,0,0
417,2023-05-12 12:47:30,-16.22345637,70.09820567,36.69827271,26.26856613,1003.637939,334.9256618,67.58351972,261.9824687,0.01903199963,0.0378200002,0.01488399971,0.001750722528,-0.00068333745,0.0002748202533,-4.766208649,-0.5418214798,-15.24670506,0,0
418,2023-05-12 12:47:30,-16.21749977,70.10292088,36.39601135,26.6846714,1003.622559,334.9554295,67.67141743,262.0384831,0.01927600056,0.03660000116,0.01463999972,-0.004663027823,0.001148916781,0.0008856188506,-5.053043365,-0.6409484148,-15.77438831,0,0
419,2023-05-12 12:47:30,-16.21137402,70.10776956,36.75161743,27.14361191,1003.620117,334.9586602,67.57058335,262.1632365,0.0173240006,0.03660000116,0.01512799971,-0.00130270049,-0.001294694841,0.002107052132,-5.051843643,-0.7892156839,-15.45368385,1,0
420,2023-05-12 12:47:36,-16.20552106,70.11240191,36.55603409,27.61785126,1003.620361,334.9711782,67.66109018,262.1863635,0.01830000058,0.03586800024,0.01634800062,-0.00221902132,-0.002210460603,-0.0003365781158,-5.079427719,-0.7743417025,-15.24277687,1,0
421,2023-05-12 12:47:36,-15.91825874,70.33926685,36.609375,26.19513512,1003.62793,334.9308835,67.07518973,261.852982,0.01683599874,0.03757599741,0.01512799971,0.001140940934,-0.002515181899,0.000274091959,-5.164579391,-0.8112901449,-15.41236019,0,0
422,2023-05-12 12:47:36,-15.91445025,70.34226821,37.26724243,26.18595505,1003.626221,334.9119109,67.15695392,261.876471,0.01805599965,0.03537999839,0.01659199968,0.001446325332,-0.0006821453571,-0.002474352717,-5.086986542,-0.5848553777,-15.29193401,0,0
423,2023-05-12 12:47:36,-15.91047324,70.34540218,36.48491287,26.29610062,1003.623291,334.8979944,67.26910563,261.8758222,0.01903199963,0.03684400022,0.0153719997,0.001141022891,-0.002208665013,0.0008851345628,-5.209097385,-0.7319818735,-15.50422287,0,0
424,2023-05-12 12:47:36,-15.90630964,70.34868301,36.5915947,26.14006233,1003.620361,334.8954519,67.24421642,261.9111342,0.0173240006,0.03733199835,0.0173240006,-0.002829287201,-0.001292444766,-0.0003366358578,-5.207564354,-0.6687030196,-15.96198845,0,0
425,2023-05-12 12:47:36,-15.90248151,70.35169932,36.37823105,26.33281708,1003.617188,334.942184,67.2768374,261.9269598,0.01854399964,0.03537999839,0.01341999974,-0.001606889069,-0.0003761723638,-0.000947566703,-5.249525547,-0.7117610574,-15.23408318,0,0
426,2023-05-12 12:47:37,-15.89832672,70.35497282,36.25376892,27.02122879,1003.621094,334.9081885,67.29507401,261.9253069,0.01781199872,0.03635599837,0.0153719997,0.002669166774,-0.001902706921,0.001801107079,-5.001700878,-0.5319288969,-14.89081287,0,0
427,2023-05-12 12:47:37,-15.89453529,70.35795986,36.78717804,26.67855263,1003.624268,334.9916739,67.19919864,261.9047207,0.0209839996,0.0361119993,0.01415199973,-0.003133356571,-0.003123857081,0.000579206273,-5.045150757,-0.3963317871,-14.98958206,0,0
428,2023-05-12 12:47:37,-15.89071658,70.36096823,37.05387878,26.4307251,1003.621826,334.8809753,67.27689204,261.9308871,0.01854399964,0.03635599837,0.01366399974,0.001448441297,-0.002207070589,-0.0009479448199,-4.84796524,-0.6282185316,-15.37038326,0,0
429,2023-05-12 12:47:37,-15.88673829,70.36410214,36.69827271,26.42766571,1003.622803,334.8762642,67.31447174,262.0013884,0.01830000058,0.03635599837,0.01415199973,-0.001605469733,-0.0003741085529,-3.16E-05,-5.063251495,-0.4421240091,-15.46623421,0,0
430,2023-05-12 12:47:37,-15.88252752,70.36741899,37.1072197,26.29610062,1003.624756,334.8907288,67.31708087,262.0401155,0.01927600056,0.03562399745,0.01707999967,0.0002270005643,-0.0009848773479,-0.0003371108323,-5.332235336,-0.2458073497,-15.36820602,0,0
431,2023-05-12 12:47:37,-15.87783008,70.37111895,36.39601135,26.83153152,1003.630371,334.8981054,67.31744287,261.9968463,0.01805599965,0.03586800024,0.01390799973,-0.002215925604,-0.0003737807274,0.001495392993,-5.030965328,-0.5124282241,-14.65410233,0,0
432,2023-05-12 12:47:37,-15.8740252,70.3741157,36.91163635,26.51639366,1003.63501,334.9586482,67.26913295,261.9322532,0.01927600056,0.03586800024,0.01463999972,0.0002280250192,-0.0009843409061,0.001189816743,-5.206720829,-0.6666190624,-15.02819443,0,0
433,2023-05-12 12:47:37,-15.8700415,70.37725312,37.19612122,27.05182457,1003.633789,334.9080894,67.32236744,261.89634,0.01927600056,0.03562399745,0.01463999972,-0.001909699291,-0.001289382577,0.0005786027759,-5.163743019,-0.7471368313,-15.06700802,0,0
434,2023-05-12 12:47:37,-15.86369276,70.38225277,37.17834091,26.34811401,1003.632813,334.971909,67.27596314,261.8743673,0.01976399869,0.03635599837,0.01512799971,-0.0006874538958,-0.001594357193,0.0008839182556,-4.906056881,-0.8620665669,-15.03851986,0,0
435,2023-05-12 12:47:37,-15.8577621,70.38692277,36.52047348,26.75198364,1003.631592,334.9221016,67.19542155,261.997461,0.01830000058,0.03684400022,0.01585999876,-0.001909028739,0.0005441233516,0.0005785208195,-4.840604305,-0.8612864614,-15.32101345,0,0
436,2023-05-12 12:47:38,-15.8516261,70.39175404,36.46713257,27.35472488,1003.627441,334.9222911,67.1762492,262.1179592,0.01830000058,0.03489200026,0.0156159997,-0.0006872154772,-0.002815306187,0.0008838362992,-4.989552498,-0.6947307587,-15.5235157,0,0
437,2023-05-12 12:47:38,-15.84567009,70.39644319,36.66271591,25.88611412,1003.627441,334.8825172,67.10644467,262.223834,0.01781199872,0.03806399927,0.01781199872,0.000229369849,-0.0009821206331,0.0008835401386,-5.534782887,-0.8807811141,-15.78693485,0,0
438,2023-05-12 12:47:38,-15.83954087,70.40126828,37.19612122,25.62604904,1003.637695,334.9192602,67.15274652,262.1549105,0.01927600056,0.03733199835,0.01341999974,-0.002213783562,-0.002203412354,0.001188907772,-5.196393967,-0.6388369203,-15.41804504,0,0
439,2023-05-12 12:47:38,-15.83359269,70.40595043,36.75161743,26.01155853,1003.630371,334.8376924,67.24168242,262.1615973,0.01854399964,0.03733199835,0.01512799971,0.002673342824,-0.0009813755751,0.0005780011415,-5.136350632,-0.6028239131,-15.4511137,0,0
440,2023-05-12 12:47:38,-15.82734002,70.41087185,36.50269318,25.89529419,1003.633545,334.8324997,67.30755959,262.1692471,0.01976399869,0.03562399745,0.01585999876,-0.0003805197775,-0.002508051693,0.002410454676,-4.999156952,-0.8137848377,-15.28354168,0,0
441,2023-05-12 12:47:38,-15.81939957,70.41712105,36.21821213,27.72799683,1003.640625,334.8143502,67.25955702,262.2387989,0.0173240006,0.03586800024,0.01512799971,-0.001602355391,-0.001591414213,-3.35E-05,-4.890732288,-0.7802256942,-14.73798561,0,0
442,2023-05-12 12:47:38,-15.81360477,70.42168116,36.37823105,26.51639366,1003.629883,334.8238134,67.28689827,262.2595422,0.01878799871,0.03660000116,0.0156159997,-0.000686135143,0.0002413839102,0.0002720374614,-5.034047604,-0.7909390926,-14.90489864,0,0
443,2023-05-12 12:47:38,-15.80790387,70.426167,36.27155304,27.71575928,1003.628906,334.8182024,67.3096428,262.2613044,0.01903199963,0.03635599837,0.01390799973,-0.001296717674,-0.001896165311,0.001799341291,-5.334851265,-0.7085193396,-14.97053337,0,0
444,2023-05-12 12:47:39,-15.80157203,70.43114887,36.6271553,26.45214081,1003.625732,334.8393299,67.22692238,262.1914862,0.01805599965,0.03757599741,0.01390799973,0.0008417181671,-0.0003686919808,-0.001255204901,-5.201275826,-0.7210257649,-15.08064842,0,0
445,2023-05-12 12:47:39,-15.79582014,70.43567405,36.609375,25.90447235,1003.626709,334.8786838,67.244756,262.1208074,0.01805599965,0.03660000116,0.01439599972,-0.001906715333,-0.002201035619,0.001188036054,-5.025164604,-0.7463573217,-15.22406483,0,0
446,2023-05-12 12:47:39,-15.78947461,70.44066582,36.39601135,26.32057953,1003.625,334.8185542,67.26920808,262.1880028,0.01854399964,0.03562399745,0.01512799971,-0.001906100661,-0.002505935729,-0.000949954614,-4.81972599,-0.9691312313,-15.12513161,0,0
447,2023-05-12 12:47:39,-15.78371163,70.44519893,36.69827271,27.0946579,1003.62915,334.7356169,67.24931174,262.4192047,0.01927600056,0.03635599837,0.0156159997,-0.001294825226,-0.000679038465,0.001798411831,-4.976613045,-1.019394398,-16.11047554,0,0
448,2023-05-12 12:47:39,-15.77736473,70.45019092,36.73383331,26.2257309,1003.633789,334.7602773,67.16845596,262.5436917,0.01903199963,0.0361119993,0.0153719997,-0.003126624972,-0.001594774425,-3.43E-05,-5.228856087,-0.5159935951,-15.61672115,0,0
449,2023-05-12 12:47:39,-15.7715755,70.45474388,37.1072197,27.11607552,1003.636475,334.7797416,67.19582453,262.513755,0.01830000058,0.0361119993,0.0153719997,-0.002515628934,-0.0003726929426,0.0005764719099,-5.243287086,-0.7284197211,-15.47426033,0,0
450,2023-05-12 12:47:39,-15.76558624,70.45945376,36.68049622,26.24408722,1003.630127,334.7689687,67.17198717,262.4982914,0.01951999962,0.03830799833,0.01341999974,0.0008439980447,-0.001288294792,0.0008817352355,-5.127696514,-0.6500845551,-15.52477932,0,0
451,2023-05-12 12:47:39,-15.75777534,70.46559555,36.68049622,26.18901443,1003.625732,334.7730259,67.29041582,262.4394152,0.01854399964,0.03684400022,0.01463999972,-0.004041872919,-0.0006771460176,0.001186896116,-5.21309042,-0.5633583665,-15.10283661,0,0
452,2023-05-12 12:47:40,-15.75205857,70.47009027,36.37823105,27.18338776,1003.625732,334.7309229,67.34421722,262.3904428,0.01805599965,0.03635599837,0.01634800062,-0.0003767386079,-0.000371530652,-0.0009512491524,-5.366632462,-0.7931728959,-15.4650526,0,0
453,2023-05-12 12:47:40,-15.74599427,70.47485782,36.6271553,26.3511734,1003.63623,334.7765366,67.48852545,262.2584562,0.0204959996,0.03660000116,0.01781199872,-0.002819687128,-0.001287192106,-0.000340398401,-5.104732037,-0.663398087,-15.10548592,0,0
454,2023-05-12 12:47:40,-15.73992706,70.47962724,37.39170074,26.29610062,1003.641846,334.7412501,67.41437009,262.2793497,0.01927600056,0.03586800024,0.01512799971,0.0002349689603,-0.002508491278,0.001492133364,-5.198227882,-1.036325932,-15.14889812,0,0
455,2023-05-12 12:47:40,-15.73364676,70.48456374,36.37823105,26.18289566,1003.635742,334.728826,67.36779503,262.3097236,0.01756799966,0.03586800024,0.01512799971,-0.002208210528,-0.001591652632,0.0005754102021,-5.197188377,-1.052933335,-15.19463539,0,0
456,2023-05-12 12:47:40,-15.72775451,70.48919481,37.28501892,26.81623459,1003.641846,334.7888207,67.32160929,262.3018211,0.01805599965,0.0361119993,0.01634800062,0.00054044649,-0.001591444016,-0.0003411304206,-5.247706413,-1.007969856,-15.07893562,0,0
457,2023-05-12 12:47:40,-15.72188018,70.49381142,36.66271591,26.29916,1003.640869,334.7839354,67.22899192,262.308904,0.0173240006,0.03635599837,0.0173240006,0.00145702064,-0.002812840044,-0.002479016781,-5.168094158,-1.156253457,-15.24386597,0,0
458,2023-05-12 12:47:40,-15.71596709,70.49845808,37.24945831,26.81623459,1003.643311,334.8401598,67.15864098,262.2981123,0.01781199872,0.03684400022,0.01512799971,-0.0003755986691,-0.0003688707948,0.00149156712,-5.224473953,-0.9106929898,-14.96195507,0,0
459,2023-05-12 12:47:40,-15.70988048,70.5032407,36.36045074,26.28080368,1003.640381,334.817014,67.20171898,262.2882973,0.01707999967,0.03708799928,0.01439599972,0.0002356767654,-0.001590557396,0.001491142437,-5.171002388,-0.6966515779,-15.11763191,0,0
460,2023-05-12 12:47:41,-15.70383838,70.50798793,36.66271591,26.66631317,1003.632813,334.8402213,67.26253498,262.2112118,0.01927600056,0.03635599837,0.0173240006,0.001151919365,-0.003422379494,-0.0006469246,-5.189434528,-0.4236531258,-15.11406326,0,0
461,2023-05-12 12:47:41,-15.69615127,70.51402703,37.30280304,25.80350494,1003.636475,334.8227684,67.23119808,262.1780853,0.01878799871,0.03635599837,0.01488399971,-0.001596745104,-0.003727115691,0.001796651632,-5.123082161,-0.4883470237,-15.02459526,0,0
462,2023-05-12 12:47:41,-15.68980062,70.51901569,36.82273865,26.52251244,1003.630371,334.8255432,67.23287147,262.1350278,0.01805599965,0.03635599837,0.01439599972,0.002984791994,-0.002810128033,0.0002692434937,-5.014444828,-0.5897060633,-14.93279552,0,0
463,2023-05-12 12:47:41,-15.68406574,70.52352026,36.66271591,26.4796772,1003.627686,334.8276366,67.24716023,262.129188,0.01830000058,0.03586800024,0.01244399976,-0.0006801709533,-0.003115132451,0.0008800197393,-5.120130539,-0.4504348636,-15.13512135,0,0
464,2023-05-12 12:47:41,-15.67809681,70.52820827,36.27155304,26.21043205,1003.624512,334.7729917,67.2852317,262.1335935,0.01781199872,0.03660000116,0.01268799976,-0.001595936716,-0.001282081008,0.002712065354,-4.906424046,-0.7367340922,-15.83840752,0,0
465,2023-05-12 12:47:41,-15.67193921,70.53304404,36.57381439,25.46694946,1003.62793,334.8365091,67.22435423,262.2176253,0.01756799966,0.03586800024,0.0153719997,-0.0009847916663,-0.002503283322,0.000573663041,-4.924280643,-0.9707297683,-15.35357475,0,0
466,2023-05-12 12:47:41,-15.66617791,70.5375682,36.21821213,26.11864471,1003.634766,334.899007,67.30417182,262.2653752,0.01756799966,0.03586800024,0.01439599972,-0.00159522146,-0.001586645842,0.0008789021522,-4.857893467,-0.5999599099,-15.91397667,0,0
467,2023-05-12 12:47:41,-15.65981633,70.54256331,37.17834091,26.29304123,1003.632813,334.8729788,67.24974204,262.4144167,0.01903199963,0.03660000116,0.01610399969,-0.0006785169244,-0.001280926168,-3.73E-05,-4.860227585,-0.8589511514,-15.25719166,0,0
468,2023-05-12 12:47:42,-15.65405384,70.54708762,36.75161743,26.48885727,1003.636963,334.8759944,67.22666966,262.4949242,0.01781199872,0.03489200026,0.0173240006,-0.000983800739,-5.87E-05,-0.00064807944,-5.221306801,-0.7856011987,-15.22577286,0,0
469,2023-05-12 12:47:42,-15.64772455,70.55205652,36.98275757,26.20431328,1003.638672,334.9018159,67.17353079,262.4689148,0.01927600056,0.03537999839,0.01756799966,-6.76E-05,0.0002473071218,0.001489654183,-5.208191395,-0.5299091339,-15.09709167,0,0
470,2023-05-12 12:47:42,-15.64173133,70.55676117,36.66271591,26.85294914,1003.637695,334.8987372,67.08311274,262.406562,0.01830000058,0.03733199835,0.01683599874,-0.001288797706,-0.00189012289,0.0002679619938,-5.057816982,-0.5518689156,-15.02552319,0,0
471,2023-05-12 12:47:42,-15.63402644,70.56280888,36.68049622,25.99932098,1003.644287,334.8628872,67.0806129,262.3850606,0.01805599965,0.03562399745,0.01683599874,-0.00403720513,-0.0003625005484,-3.74E-05,-5.267119408,-0.4801819324,-14.99014282,0,0
472,2023-05-12 12:47:42,-15.62767825,70.56779119,36.34267426,26.28692245,1003.638184,334.8256849,67.03934489,262.3180291,0.01830000058,0.03733199835,0.01610399969,-0.00189858675,-0.003415964544,0.0005732420832,-5.137478828,-0.5962709188,-15.12327766,0,0
473,2023-05-12 12:47:42,-15.62179171,70.57241078,36.609375,24.561306,1003.639648,334.8754223,67.0599584,262.2448846,0.01854399964,0.0378200002,0.01585999876,-0.00189820677,-0.002804204822,-3.79E-05,-4.949934483,-0.9369755983,-15.14922237,0,0
